ax,ay,az,arx,ary,arz
0.0,0.0,0.0,0.0,0.0,0.0
-0.00010433837703132949,-0.0013169755941765916,-0.0007377877534283015,0.009249617905936263,0.025831056952935416,-0.0021039902966560916
1.45965161050322e-05,-0.0013306919433220827,-0.0006232335649624191,0.016074086578137022,0.019015671185872385,-0.005367073391521307
-0.0004599889966413492,-0.00036107497929610793,-0.0026810235763304133,0.04201177606151269,-0.04530628345582985,-0.0044336394573270795
-0.001302810511494659,0.0034134731071932896,-0.010435122176201782,0.10831098032418912,-0.171721683213353,-0.03601341041687175
-0.002632610888458964,0.01156902895251097,-0.02640382372066527,0.22210660579207114,-0.2935823076690768,-0.12282991048937078
-0.004372722791043953,0.021439787785674187,-0.04296280658382101,0.3106593351883805,-0.3281417294742946,-0.19562723427640358
-0.006646895166103553,0.019961280631409253,-0.038198781360116604,0.20666745704945508,-0.21916073047161927,-0.1015445505620892
-0.005576887798136238,-0.010212651270379597,0.011171497554848094,-0.2943402274999577,0.10834642246472809,0.34049191191172656
0.006924008695013203,-0.06691704461819167,0.10805649802950451,-1.2656523706792093,0.8128843850362963,1.119891893714388
0.0358670816994077,-0.14103715366411235,0.24068029070782426,-2.683961269945894,2.0283191533900347,2.1376361580985996
0.08131671054338165,-0.235297715719464,0.37706759109733645,-4.319812605285291,3.8175063539817264,3.312439586776728
0.13507849776117065,-0.3463247117753946,0.48288824504252303,-5.948288442617628,6.39536068687096,4.379336194652641
0.18894363831144628,-0.4717196753318986,0.548803822101421,-7.381346370120506,9.483301647309027,5.119358490104803
0.23924411038262497,-0.610785738626459,0.5860667052550144,-8.415566948411056,12.255485293634466,5.6512708993022756
0.28847718524372123,-0.7514659135975512,0.6116778371075837,-9.015619580565152,14.19449501215976,6.1226197533076085
0.3300175738686937,-0.8714558482160025,0.6006538374660816,-9.025688860476155,15.465593172692364,6.499205279333981
0.36352605859303794,-0.9352254026172307,0.5511051799931053,-8.629135342182089,16.28368084535502,6.541560205959798
0.3739899110270933,-0.9216893919238801,0.46989168514093066,-7.914688295732042,16.3342216662441,6.143103045850373
0.3532127407372625,-0.8193670692182332,0.3863570623248645,-6.839927623410295,15.107268475400652,5.218360905698268
0.31115403129713426,-0.6670335730421554,0.32749176028682014,-5.590457579900119,12.73307684895223,4.087013080247193
0.2553835977942964,-0.5113181401686413,0.2855703324994709,-4.3197629431367925,9.894749515451494,3.088950641331374
0.19888328746664682,-0.3716388315308336,0.25121306464091386,-3.2308353748037844,7.4046861079700195,2.2437418284818165
0.15038928545963165,-0.256842578925543,0.2113563305717978,-2.347805470314244,5.648934557890151,1.5335886482206518
0.11435941420951198,-0.1749608513292758,0.16449615998698838,-1.642200285811347,4.56849945206339,1.0158672402936533
0.09031485654428997,-0.09628230484891499,0.12506554224941024,-1.039404142696108,3.5723632710869864,0.46938844457989126
0.07552455679561923,-0.005092905038170836,0.09853123104746933,-0.46630257149618637,2.311967233136574,-0.20188314054903544
0.06780234533482263,0.09005313142487022,0.08234546942849792,0.10224058976662542,0.77822167935477,-0.8832010284695525
0.06435450149343869,0.17374589287305553,0.07156861551467582,0.6424353810747612,-0.782423265788059,-1.4162363020806015
0.06290371491438923,0.23575434685987778,0.06590182563221314,1.07509810835571,-2.0998094237804183,-1.7301217239079123
0.06353538061942444,0.27252626844587396,0.06534329269089952,1.353551851059233,-2.9680916046642505,-1.8555257806940155
0.06646818802436223,0.28282150662900407,0.06388169115738752,1.514442191751905,-3.341011810151943,-1.823111135035829
0.07153404483399484,0.2723916383273735,0.0583548537515176,1.6159378890558116,-3.323430102871573,-1.7080461214977682
0.07602661751500156,0.2579966186584927,0.04992111256792804,1.7208772349925194,-3.199356538580002,-1.637860137025437
0.07735598903687103,0.251902817305302,0.04268144858059755,1.852134663130821,-3.202164996586474,-1.6772376126347208
0.07513675106179304,0.25519111479581524,0.043802231402048517,1.9635081263173275,-3.356080694698688,-1.7997764884635146
0.07063352638304808,0.2652081934873531,0.05891482755275926,1.9840281310599466,-3.530722629952745,-1.9569720446725112
0.06493053939842523,0.2775705128984554,0.0880051653329735,1.8851269237174082,-3.6356205456178396,-2.1216043866437744
0.058317038613077056,0.28717397339699613,0.12589885586642954,1.6942726466344629,-3.6404998381597395,-2.269402275058814
0.05020781010954661,0.2901010743016256,0.1656181076466663,1.4722390401004783,-3.5700466790258862,-2.3744788045679024
0.04027051478612121,0.2881337318821169,0.2016756614227369,1.2816064689092475,-3.5004714928623915,-2.4303859188098573
0.02878147341024989,0.2832240034570637,0.23294311184862654,1.135307375419426,-3.4452014394392743,-2.4364554912185494
0.016272729987055055,0.2775558184254844,0.2604010490667584,1.0189679567653682,-3.3908139430079705,-2.409906363121576
0.0034740362867588005,0.27273098594934836,0.2850459121550484,0.9219638026870993,-3.3324429897965033,-2.364922599617767
-0.00932781919967079,0.26875322653688827,0.3072975621253537,0.842329666063895,-3.2835881970619107,-2.299597260262791
-0.02212887910861388,0.2667277849866196,0.3272725052548953,0.778742266353247,-3.255892166237938,-2.229108988258652
-0.03513365688870406,0.26819292968536407,0.3447200492282005,0.7343109554089189,-3.2587217011591085,-2.1672803863336525
-0.048246476743814715,0.2745788728167533,0.3592896467204962,0.711639638939316,-3.2914560569674483,-2.125244691370919
-0.06139292778748669,0.2857767849077205,0.3713413755795556,0.7081216893583708,-3.3635721797326306,-2.10557623055906
-0.07381631182470946,0.30229397666295443,0.3811904119655815,0.7179280468199085,-3.4624486817811184,-2.1128463917902023
-0.08538408020419608,0.3221192854106656,0.3886934261266079,0.7359040553488239,-3.5701287705190694,-2.133157977410152
-0.09577924262390346,0.34399766271574933,0.3934597984780001,0.7623656990675222,-3.6715569876488363,-2.1555724834651175
-0.10529605323044494,0.36622012741770266,0.39505564342427757,0.802681715906193,-3.7794679489584606,-2.166480634661622
-0.11430211074666384,0.38714930850102836,0.3934741953176879,0.859746798276315,-3.9166498219189503,-2.1580217335406755
-0.12256593354064436,0.4074712861485435,0.38897745154768265,0.9289599506353695,-4.0656132673861,-2.1363090726783405
-0.13019014019827665,0.42686104993240537,0.38100985024645684,1.0124774488604191,-4.216126325340184,-2.1038111365093775
-0.1371107427820464,0.44457559376317896,0.3688186838277369,1.1171879193768686,-4.371861978753674,-2.0595542618575977
-0.14250329401143297,0.46110850127822967,0.3513317793292206,1.2494031128511893,-4.523149236376977,-2.0068232114289652
-0.1464856026787068,0.47698438744435745,0.3302934127999914,-6.445736232769114,-4.660464888595926,-1.9501482890204502
-0.14836429476485816,0.49213941163410896,0.3058154671461306,-12.705059721286377,-4.785288798702891,-1.8908338351746485
-0.14836067994781185,0.505422750757475,0.2785648157465845,-17.738773360101003,-4.890909940087925,-1.8241672831198026
-0.14593543899426042,0.5173224233343832,0.2482328642226002,-21.717949074711484,-4.967556467214197,-1.7565647241645475
-0.1410044585650727,0.5287192870242445,0.21609621612208746,-24.796809483365685,-5.006964889376119,-1.6905831340170372
-0.1346981306918279,0.5384916207500425,0.1841910187762048,-27.11649796862169,-5.001875926736945,-1.616537504546111
-0.12751136674560926,0.5452278503552777,0.15264446051718053,-28.776508634609453,-4.968762355882329,-1.5331210634816332
-0.11838068050416961,0.5492234440776219,0.11985134652200466,-29.84348513143491,-4.928657215084378,-1.4504805519331598
-0.10705267775542271,0.5516545873373137,0.08607278432524253,-30.394044708493173,-4.88343374734426,-1.3727555971311194
-0.09479410700965267,0.5536533699684101,0.052632773414137086,-30.512785763955744,-4.816068773547726,-1.3000875028147578
-0.08231215402636832,0.5554374653451161,0.01982029867310619,-30.268525306707836,-4.7095150124166345,-1.2312531893424172
-0.07033554618749872,0.5564931596244477,-0.011811868215354744,-29.71916541655683,-4.570820648776598,-1.1658624401072175
-0.058579837739796935,0.5566585093389507,-0.04246930240996089,-28.904823240228342,-4.41181800845096,-1.1069121932001822
-0.04597851685053319,0.55642868177646,-0.07207575552937656,-27.864830780284052,-4.229554885574149,-1.0477107309308542
-0.033209866633869614,0.555273064090726,-0.09944986900125284,-26.64308883248653,-4.025451124679601,-0.9736756683895481
-0.02132695904056501,0.5523112668882726,-0.1239248473464981,-25.27165754401299,-3.807117876232888,-0.8854890200036057
-0.009643056455804887,0.5483520240658085,-0.14676389525995504,-23.76122725737187,-3.5831201339531775,-0.8017933021284128
0.002879396171004687,0.544897888520393,-0.16915331001230127,-22.12714660544499,-3.352330406455715,-0.7336042042952413
0.01526221360943954,0.5414257402398126,-0.19061915187679232,-20.397693121987565,-3.119475666237081,-0.6760168665013824
0.026449623506431034,0.5366762407022478,-0.21078905825781483,-18.601165811704767,-2.8765006362559262,-0.6188523827651797
0.03710546009425207,0.5310074772576373,-0.2303499249689866,-16.75274386983268,-2.6150209879192423,-0.5661278002250675
0.04870701220180675,0.5252824798549415,-0.24938526902628344,-14.867941437374897,-2.3358226899486745,-0.5158031073356282
0.06057146760295006,0.5186896104977473,-0.2665141407297794,-12.965923888100493,-2.0597629593414855,-0.4611524383595189
0.07241452582271514,0.5106579678108542,-0.2816753710673682,-11.056846220978063,-1.7947443279396504,-0.40315601448374877
0.08393332026800246,0.5006898207832047,-0.29527989502289614,-9.1473890614964,-1.543760751566601,-0.3469342498895177
0.09510904037168456,0.48908037973343316,-0.30752309601571376,-7.250829793856079,-1.2968070433826024,-0.29169234839389924
0.10661604947946172,0.47705090548806345,-0.3184918636127971,-5.3850230424811745,-1.0398020119484512,-0.2315390354893862
0.11768101678900991,0.4644812413806785,-0.32700606487093714,-3.5678872729951383,-0.7828619965669217,-0.16406634078714122
0.12758907362854988,0.4510467236603076,-0.3321764265307497,-1.806335360756335,-0.5438643143257949,-0.09821704829022357
0.13663429121337423,0.4363878203250392,-0.33427525491928484,-0.10055251894468831,-0.3261584342239978,-0.03855902556191088
0.14461199883474485,0.41973015892555804,-0.3338400708209898,1.5422454601446918,-0.12664385179327306,0.02500814178779725
0.15152632443437053,0.40109488586532827,-0.33184890661084226,3.1128071825346684,0.0660315222305809,0.10209163967117477
0.15824411045239672,0.382699027152769,-0.32913420366716095,4.6063546076405295,0.25997509449453526,0.18234814030267743
0.16451610944591716,0.3653098036261298,-0.32489693276798104,6.015005953937364,0.4504602473764914,0.262672729787637
0.1692291658417926,0.3478906277536239,-0.3182548750956881,7.3402691146233074,0.620807171323317,0.3377952432756426
0.17221383681120486,0.32907319713840444,-0.30958037582304987,8.58524703729752,0.7649262667310284,0.4041786239159404
0.17415472143274946,0.3084197086519086,-0.3000706069826336,9.745384299400355,0.8996374998204896,0.47308757895027664
0.17645629185810097,0.2870568135980995,-0.2906678918325038,10.817187951457539,1.0398176881202363,0.5518939337862592
0.1787704975485839,0.26503567817456314,-0.28100314865620973,11.799533028895992,1.1757037272349626,0.6416780337036287
0.18032765289520936,0.24255456429503325,-0.27040117230783517,12.693193598183235,1.297855054507896,0.7325535712203483
0.1811862631231075,0.21981995808692475,-0.2585004927517006,13.49521828109282,1.4098825084281532,0.8218485697493408
0.18224461570321274,0.19669242616779062,-0.24569744651226616,14.205563374484749,1.5199235528502426,0.9165170961256197
0.18301208897124077,0.1723926318410414,-0.2321934828766159,14.827771198618699,1.619088548333184,1.018109013783326
0.1826244287722059,0.14700258189341903,-0.21782090253583986,15.363263656047833,1.7013188497991234,1.1225441831070897
0.18085740602980255,0.12142831127677593,-0.20262130333119505,15.80841752330562,1.7781985283578854,1.2294781493078843
0.17895857771139817,0.09734281722442642,-0.187824126874363,16.168475676902847,1.8674533330709526,1.3324800164611141
0.1765422991355708,0.07449752195875398,-0.17343912457632724,16.452828109877522,1.9492561444538825,1.4223174119505264
0.1732580768046526,0.052869182748002355,-0.15928083329684867,16.6662295374398,2.015056405993237,1.4980534167959094
0.1684998101979687,0.03195675414744703,-0.1451779387307329,16.813446646124227,2.0559677143528923,1.5582345969398637
0.16219100357869082,0.011850019502655147,-0.131475563482205,16.89846156543623,2.0794939893238684,1.5999169874912553
0.1555314286253881,-0.007282785254369296,-0.11910739476305063,16.92760454697884,2.099182553580205,1.6278900197718793
0.14939903889135636,-0.025547712677290113,-0.10753021404170046,16.904733841119402,2.103082919946341,1.6430899853971717
0.1440959858412787,-0.04284688205389629,-0.0956839151424635,16.826375840381527,2.092321719976329,1.6487683563915205
0.14013456457591644,-0.058329215724595276,-0.08328105858493853,16.688972512405673,2.0751711327043214,1.6420237586529478
0.13662433027102916,-0.07331921828402316,-0.06963139313167477,16.488875752996908,2.042671672540534,1.6317414011382538
0.1330082974056552,-0.0884385378287313,-0.05524116383319447,16.230206132277804,2.000204033134988,1.6206590151444376
0.12853549734916334,-0.10402795832916861,-0.03981687200762216,15.915755167033875,1.9515358379327243,1.6074082325405694
0.12355277650946495,-0.11980548175030115,-0.024210080786795568,15.557794939297272,1.8961607267727432,1.5857204417955417
0.11915373876307088,-0.13489903406877135,-0.010036561079900114,15.168192877859134,1.831586034224246,1.5530042075120605
0.11560521962629576,-0.1488612477133418,0.002308665033245302,14.748376658065846,1.7547577603374556,1.5108819702525498
0.11157263622539952,-0.16282188171066164,0.013790045864710176,14.290484230838295,1.6760118127937602,1.4709769253579243
0.10678159873719775,-0.17688468870671065,0.023578072778306494,13.801289785236934,1.6119784838016014,1.43377069885017
0.10205874975653036,-0.19082554830598686,0.030034482909547043,13.302357253153883,1.5539640960250602,1.391681294201501
0.09818626719849519,-0.2042055144867075,0.033455034330204414,12.80327168012584,1.4845356724104275,1.3423369741364966
0.0951641864019293,-0.21775920407840618,0.03638041414498069,12.295394912242271,1.3984359671956499,1.2920523458751259
0.09259703967948696,-0.23199612933973843,0.03869054253070118,11.779922509846674,1.2991998810793328,1.2451281271954353
0.08961106140621275,-0.24717963771425933,0.04036561825552541,11.256274324452907,1.196581182058902,1.20530522686947
0.08559653135740143,-0.2621709782802454,0.04151292377254254,10.73197712359676,1.07763226847791,1.1565828685452317
0.0810225017764091,-0.275644566392816,0.041585107887673715,10.213680074928444,0.9407017231890145,1.0878546132872882
0.07644135488438536,-0.28816616123101835,0.04072221303436304,9.694264012872114,0.8050839776098914,1.0142629026971652
0.07187447597171671,-0.30108535178240586,0.0395851527700286,9.164147744205343,0.6932807481200813,0.9535383864908289
0.06651272659336697,-0.3130305400809719,0.03853911240515254,8.635080375509766,0.5754303547173206,0.8819707968428933
0.06014991130434592,-0.3220058687913094,0.03665393547910505,8.126808911253365,0.4164261337817321,0.7714605605097077
0.052678471705884924,-0.32810326818454644,0.03307066964907278,7.63836464475157,0.24804737548156472,0.6317841372439849
0.044139311185077704,-0.3330997089566644,0.028711630131368886,7.147603099313953,0.11647313907374293,0.4986759009058057
0.03481340411043134,-0.3380728443671406,0.024082667325466958,6.657105646110761,0.016104338989374356,0.3758615841440356
0.024798179053752395,-0.34190502218690894,0.01993823576648478,6.183381475006934,-0.10305756334439312,0.23788957263517105
0.014262173009006084,-0.3445329568672343,0.015615354505930035,5.731971808475771,-0.24083076440365217,0.08711008034571432
0.003376172932782962,-0.34722409031882934,0.010554508832188059,5.28950281134347,-0.35887493748278676,-0.05057802067410211
-0.007942923842944935,-0.35039260127130695,0.005580284702886906,4.849991316928445,-0.44996820889794775,-0.169753478219975
-0.019660288722979702,-0.35305816836408466,0.0016787450381909848,4.417872471691825,-0.5329737774350378,-0.28662043542557614
-0.0314144333172513,-0.3557011523252501,-0.0009163991375030485,3.990137101366645,-0.6051648100875113,-0.3934194848371204
-0.04286821217012559,-0.3589865365417195,-0.002495983712037876,3.561266705162369,-0.6564762448846526,-0.47671492474567656
-0.05409900362116064,-0.36190527989386845,-0.003177120498091955,3.1353251254065873,-0.6951327913704393,-0.5471133851006932
-0.06519141061921754,-0.36341487358351715,-0.0031521213086776936,2.7264400893978706,-0.737379362084075,-0.6219171890704756
-0.07625806845690962,-0.3642415380164756,-0.002364916362627164,2.3299083384249952,-0.7652683391699476,-0.6894566604638513
-0.08740497738801176,-0.36496350679179246,-0.0002969240481685317,1.9386691362644732,-0.7780163143153445,-0.7427135617146335
-0.09821725871057782,-0.3647959893117201,0.002934511791784911,1.5581010006151779,-0.7913167092721742,-0.7938809114680894
-0.10829260162113884,-0.36366301990827227,0.007283113269855914,1.1888030033548826,-0.800569319397406,-0.8408397666928258
-0.11742579665471777,-0.36200527710132047,0.012085312137166702,0.8358636808917503,-0.8028507889962694,-0.8786407583140972
-0.12599663638339512,-0.35957877955188766,0.016883246926266183,0.5064648970131559,-0.8046466769119681,-0.9130903318203892
-0.13422314611915243,-0.3565012933535557,0.02189331534174055,0.19588742257006453,-0.7988805920274883,-0.9415406325946193
-0.14210244368920127,-0.35252378940498896,0.027041320102178017,-0.09806039107678932,-0.7864792987960048,-0.9652793649341863
-0.14945974706392556,-0.34752068162533634,0.0318300418223441,-0.3702875951202697,-0.771398942810337,-0.9873362008021943
-0.1562930696669423,-0.3422239451887022,0.036513256788640036,-0.6223194668367757,-0.7489270432710341,-1.0005933447750746
-0.1624796898821487,-0.33664791815490963,0.04126102366807287,-0.8537117717570416,-0.7290928571845935,-1.0064029460047237
-0.16770401781298994,-0.33015471280405895,0.04585951075565704,-1.0640205472641893,-0.7087542103512836,-1.0107428237115175
-0.171917321580849,-0.32296097949114794,0.050447318779966215,-1.2620681053479195,-0.6725702963053954,-1.008282101517759
-0.17512033147798892,-0.31560650366348647,0.055536371589695724,-1.4499712307631376,-0.6330713728070781,-0.9978876802502402
-0.17746956340768488,-0.30809459304116604,0.06095993819570024,-1.6245821976033858,-0.5934418465312018,-0.9817619871925547
-0.1793265377464107,-0.3007539543402768,0.06611050429842226,-1.7815554905530069,-0.5510952117053552,-0.9586301184148006
-0.1807474064106101,-0.29359214341633055,0.070618182747518,-1.9192676576930399,-0.504923529965951,-0.929817170979625
-0.18157407036885082,-0.28641607455125706,0.07463996909933773,-2.041678844803192,-0.45793163197821474,-0.8956156877015254
-0.1817396827575178,-0.278976960557641,0.07851297962016668,-2.1531397879749474,-0.4073141583404717,-0.8581352276455445
-0.18152538942429514,-0.27118376757354634,0.08248666529087847,-2.253998281500012,-0.3514230995529315,-0.8199388564600012
-0.18099377190311008,-0.26323396631168455,0.08692472518757037,-2.345711127476645,-0.2957338944530258,-0.7781751154306032
-0.17999997474488422,-0.2548680753905235,0.09171410475010688,-2.4299494714034022,-0.2392909622353388,-0.7333318595155989
-0.17850520681719192,-0.24573515036484403,0.09583952919306239,3.388079627735867,-0.18274264614546343,-0.6922092163724489
-0.17656864798456676,-0.23631655441128324,0.09938214797163647,8.452643764047318,-0.12300001309556843,-0.6517809319172428
-0.17421674244610122,-0.22690452904120353,0.10237054999490769,12.816632615073996,-0.0683338347329468,-0.6100651297580036
-0.17150336942459196,-0.21752920285325308,0.1046662467179412,16.53158925120728,-0.016321081120714974,-0.5682014610854123
-0.16850972634693495,-0.20821201955252808,0.1064554551525589,19.63990124823375,0.03370712249787109,-0.5249295126321916
-0.16518990084124377,-0.19875572979612235,0.10825834579323662,22.180766164941787,0.0822293232074813,-0.48124935377283834
-0.16150118615303322,-0.18893985936129862,0.11004702984854435,24.199269458297834,0.12715516808362995,-0.4407133283685087
-0.15741399524142982,-0.17937597343200964,0.11171905299855524,25.73756794521912,0.16849877251799983,-0.3972923240172219
-0.15283909499076412,-0.1696649316492414,0.11266255325479367,26.839168806403848,0.20639777543589694,-0.35640675387316295
-0.14795068363674624,-0.15990863093590627,0.1130244819380186,27.539957999102604,0.2462660924560291,-0.3187163953950455
-0.14287187402939783,-0.14987329575909802,0.11287421569277867,27.87664545920503,0.28552321523236324,-0.2867944228036799
-0.13795030294960275,-0.14033331859557957,0.1121264526134501,27.885036118193405,0.32412475070971836,-0.25359928862856285
-0.13300059233316397,-0.13079203166450018,0.11057769683141061,27.600316667030942,0.35589034592551777,-0.2239082273397831
-0.12776596435208354,-0.12166661295487316,0.10866351435027866,27.045620140315243,0.3923652349368044,-0.19080558910354983
-0.12239991224222745,-0.11296758866004715,0.10620551880289769,26.252981820032783,0.4284165204285499,-0.15828296304728381
-0.11710970178376164,-0.10519452971558824,0.10306919244415925,25.256760440797137,0.4630140458129194,-0.1261966550661047
-0.11186985017698257,-0.09791309457803572,0.09912852502421543,24.08735244869269,0.49380992017456227,-0.09717332260693323
-0.10676217433636755,-0.09088484348719274,0.09436760484275282,22.76766041512956,0.5245303935679523,-0.06870199841930619
-0.10206200537762944,-0.08387265629843747,0.08868345981134541,21.32016949064751,0.5561710999411213,-0.04384891358699152
-0.09782318978850302,-0.07760646871286277,0.08249738100019313,19.763986123572103,0.5907558386670463,-0.01857899323702476
-0.09358700493216456,-0.07182833662791334,0.0756885397926089,18.12435051853338,0.6209843288157094,0.00440775370078246
-0.08916904371828457,-0.0660334749004308,0.06869738918802464,16.417508486234457,0.6443981557468269,0.025947364471816437
-0.08482592939693827,-0.06008248377314562,0.06184117130840504,14.657845476450692,0.6641214243624199,0.04488173612396611
-0.08055382262570462,-0.0547599401591275,0.0555166458220713,12.860026895483358,0.6776725350535484,0.06623065804337142
-0.07620829486324741,-0.04967341071897415,0.04987318327031878,11.03511018890188,0.6873337874775416,0.08617981928835677
-0.07194706966163368,-0.04433320789571523,0.04452250683766891,9.198968768930573,0.6985949430586091,0.09960846078347502
-0.06777455836848915,-0.038829325806774215,0.03938145429594182,7.366893728948405,0.7092875282654094,0.11075660959916145
-0.06359227882922563,-0.033495430226446216,0.034555291451449435,5.550369179521934,0.7182721049118501,0.12243767744183946
-0.05925598705077982,-0.02812051532269571,0.029601191738467654,3.7635977767952933,0.7226793219081149,0.13230462435985024
-0.054804029141550886,-0.023146515544966238,0.024529872758787926,2.0144750801282703,0.7251481634017566,0.14436900795798105
-0.050489689672500435,-0.018450203725257595,0.01914077683905475,0.3139182765932549,0.7265620374197729,0.15486121846774575
-0.046718895854982324,-0.01410829209036552,0.013502273439970753,-1.3312444314955787,0.7355600999530629,0.1626230552185853
-0.04321701536663406,-0.00931355429485916,0.007756891230187456,-2.912932152844572,0.742915245954499,0.16231224850366538
-0.039706960820491466,-0.004343335567088529,0.002320399492155438,-4.426926900905052,0.7459835611024509,0.1601269165864944
-0.03613189071399942,0.0007233605567934231,-0.002869621476854942,-5.865937267073679,0.739313357979536,0.1570290286910514
-0.03250725022194897,0.005456851050154145,-0.007268013487442527,-7.233183803351334,0.7364018098023503,0.15495710621943382
-0.02898642126878881,0.009967423081183403,-0.011133471095236571,-8.52314867958842,0.7314979288888828,0.15015054263552444
-0.025683991903315214,0.014213973709321556,-0.014928708376853414,-9.7286353342391,0.722346328857326,0.14302481317770543
-0.02263449261462962,0.018216781431468976,-0.01849260979468061,-10.847778880192003,0.7093818946468299,0.1356302293004868
-0.01985272322258032,0.021711297890739185,-0.021749017988529865,-11.877869870610027,0.6928017998442119,0.13202344810939598
-0.017282392989844835,0.025464601840504572,-0.024678750579275807,-12.819184770520945,0.6740518314172084,0.12478388226527017
-0.014903047831382847,0.02903907228055906,-0.02736986401568082,-13.67325446579326,0.6526574026055955,0.11411685486366584
-0.012312104728703735,0.03178840229660638,-0.029492894138816506,-14.44572506862707,0.6302469330140985,0.10496474285348611
-0.009285448761377553,0.03351653299064032,-0.03130597534994068,-15.136647768362396,0.6143373594757637,0.0997231781203176
-0.00593613120487162,0.03423764900358596,-0.03333047560795353,-15.741901421823306,0.6005486686726503,0.10035579602088068
-0.002471330744190368,0.0342149255880054,-0.035724790862553396,-16.260948166545464,0.584890479421817,0.10643342528301754
0.0009186294354644256,0.03372451834837995,-0.03806837749836718,-16.698705678230013,0.5718670877834356,0.11489977119041739
0.00404094009072619,0.03307422633652075,-0.04000933979785082,-17.057345112175643,0.5565084120269146,0.1227105535758547
0.0070564526300770205,0.03279294471538691,-0.04077779100980966,-17.34495690070032,0.5395197627308088,0.12614883214635383
0.00969451071813934,0.0326665991173294,-0.04051045672988566,-17.56016158589396,0.5145842499950943,0.12600081635879637
0.012100465180179185,0.03264282363962811,-0.03984922950496738,-17.70220523303907,0.4855591724089707,0.12314899439507881
0.014437033672228712,0.032461314266712,-0.0393584685933714,-17.772914899020293,0.4523641173961855,0.12095281055316977
0.016565068438346896,0.031959227865772585,-0.039277951274891656,-17.773569055295315,0.41718104048799787,0.12031309637099681
0.018336732571923246,0.031374221857368594,-0.03977306594826127,-17.70669586162485,0.38483009005628954,0.11888888098835249
0.019696531677248767,0.031136349665810786,-0.04034741640324541,-17.580191021705673,0.354564336228084,0.11342225410782639
0.020569156394921486,0.031175476793895172,-0.040563339877501575,-17.400028046924234,0.32270517028246365,0.10482096745869734
0.021231610466201846,0.031393012916130544,-0.04009755349071675,-17.172888678240266,0.28836879922606906,0.09468378884587368
0.021866395716622283,0.031752787899116376,-0.039238116398643365,-16.900300015984662,0.25575425455906203,0.08246546208898331
0.022383593841863884,0.031856429416984876,-0.0385558503412104,-16.579791492693044,0.22135447548259188,0.07101896477587452
0.022683601927274456,0.031795848419128504,-0.038241321566429426,-16.214529538050485,0.18650723549289944,0.05887273903564277
0.02303758474027961,0.031536886140215686,-0.03795649385611997,-15.812198043755942,0.15295581887960558,0.048460674305333226
0.023386836857586173,0.03104669947136821,-0.03757946947773375,-15.377032924584269,0.11949380031860046,0.03957854462108579
0.023577917260350027,0.030249277343145347,-0.03707713908864094,-14.91276594531422,0.09022575726495743,0.030085427783023568
0.02351845554158537,0.029317294779276897,-0.036463416047440515,-14.422846023209818,0.06444135547912805,0.020946128198987144
0.023367911468138807,0.029049547422531057,-0.03624202124259451,-13.906553136459099,0.04123678732352486,0.007396512087961207
0.022981526915955938,0.029006414192938552,-0.03658900647127115,-13.36187784764462,0.01213261698778954,-0.004263651168919927
0.0223293773599224,0.02893163589324597,-0.037167308190731836,-12.79664491345679,-0.015838283138235446,-0.015492506740502357
0.021613917893089384,0.02880338592565487,-0.03787942585394322,-12.214680051610765,-0.04354532549899673,-0.028363152146748262
0.021136388009258416,0.027951629736936497,-0.03874240864179111,-11.619382766893711,-0.07254287684460842,-0.03429333917097882
0.020907020414496113,0.02645712598566334,-0.03961698412715581,-11.016817356457299,-0.1024273706651676,-0.031438835899166684
0.020524172533974042,0.025238729010486058,-0.040553848479282145,-10.40666868665818,-0.13077213136402707,-0.031103155078007674
0.01980772415364909,0.024363924801343133,-0.04123220053350994,-9.792479574947071,-0.16097500316922392,-0.03475160240034001
0.018986574167948557,0.02346869164921508,-0.04119727593438474,-9.182305864006581,-0.18907521186570964,-0.03751252339270816
0.018235853450627827,0.022142776007569274,-0.04071022325242679,-8.575723403522352,-0.2196881013735596,-0.037244324070933046
0.017715170311548012,0.020307702553507848,-0.039988959902679255,-7.974573978234928,-0.2474067875810958,-0.03401689838045504
0.01757633537178006,0.018393141806618423,-0.039117911170615284,-7.381566348151686,-0.27024634656321517,-0.028771084279614112
0.017348352674308506,0.016668333994213472,-0.03832640682523688,-6.794144815690442,-0.29648333130983007,-0.024092326969598246
0.016666379696734058,0.014612689584520125,-0.03732584235169638,-6.217649618306944,-0.32017306768015175,-0.01752689792785964
0.015513256715622776,0.012868679039245493,-0.036382592728147305,-5.653441801184468,-0.339872021632529,-0.013672717970484005
0.014359046230469212,0.011150318795771228,-0.035631050884524555,-5.100303912150224,-0.35579440080288444,-0.00791595807479032
0.013508506891702196,0.008882538423094152,-0.03476844573540183,-4.563937430105971,-0.3667290468846314,0.005554857013334127
0.012988406795699068,0.006483968812394507,-0.033730885983264326,-4.048014082215632,-0.37086471163816076,0.020427270612279766
0.01243158181174075,0.0037197091126841882,-0.03280303869133179,-3.5500643603988986,-0.37399862254367494,0.03869381646348872
0.011898156139664745,0.0010492306344619933,-0.032240789823016924,-3.072071023547294,-0.3651600570518602,0.058832189103976675
0.011228668921123855,-0.0009089181553582643,-0.032108385931015,-2.609698034964585,-0.3565933855028248,0.07828406181216029
0.010354989512642934,-0.0022012440137688764,-0.03200104944390176,-2.164940477771727,-0.35342347094255744,0.0962324578843479
0.00959975317736063,-0.0032496062954723137,-0.03109964010263154,-1.7490098880967997,-0.3420763716377188,0.11607991009161236
0.009048836291927837,-0.0034886755128071883,-0.029684497073317086,-1.3602980964359066,-0.3265197088239411,0.13064072068366833
0.008506329887715583,-0.0032791263784761253,-0.02759517774385789,-0.998150776562651,-0.31238392023471295,0.14204738490464516
0.007920102820554846,-0.002598898461134102,-0.024802592792371382,-0.6655313562794054,-0.2890197116846952,0.15172815910354104
0.007127828877318888,-0.00072757444366169,-0.021778410518964786,-0.3592561522889768,-0.26160579312342935,0.1537254843012334
0.006340459108952705,0.0018440694168002307,-0.018759960596673945,-0.07449497523489323,-0.2375205307828895,0.15127195061182652
0.00576830104700162,0.003968839580419267,-0.015617022784788397,0.18879688227345198,-0.21475337942073788,0.15380815427940117
0.00512132771389725,0.006259069869158248,-0.012673051529094308,0.434532177481874,-0.19743954937188696,0.15614588155629405
0.003940699006156316,0.009476326724002325,-0.010114109833334994,0.6639244050410928,-0.18577755511863192,0.149420212309912
0.0020761252052735016,0.013653715102380497,-0.007594565122011387,0.8724076863792634,-0.17482757057239595,0.13293844538403315
-0.0005430403163593283,0.018641011511305886,-0.004989467507499221,1.0607434630523116,-0.1629246785571765,0.10735860608758296
-0.00366307696192337,0.023582178956736324,-0.002521422113445657,1.234836426534767,-0.15375473814372687,0.08036819997065359
-0.006889480862163143,0.028001940695788215,-4.7732039801748685e-05,1.3940826865899272,-0.1464043911013388,0.05583613052490091
-0.010140573099377666,0.03189350614698308,0.002638757370022368,1.538105983344945,-0.14215404606276602,0.031000417503272034
-0.013238203523872978,0.03493509134824735,0.005986261549228641,1.6622490825321035,-0.13879117866672824,0.006391574861285731
-0.016211804695920633,0.037430004667002435,0.009365174454118793,1.7715908140818617,-0.14032953819786548,-0.01745719134149001
-0.018700108476824753,0.03948100781409465,0.012249315435960206,1.8693462718839458,-0.14179175341607078,-0.03996181536656915
-0.020728684759212135,0.04091412085052787,0.014881304328056635,1.9558424237139935,-0.14502179811129984,-0.06084012195577215
-0.02213322388280633,0.04194652938698415,0.017953353511849082,2.027092155487372,-0.14881187686828373,-0.08202899978068146
-0.023168496610515336,0.042227619401818024,0.02176785074767959,2.082823406049861,-0.15690512608929857,-0.09766074908393937
-0.023763215207805367,0.04177891666434247,0.026165860077775254,2.120826589083887,-0.1640044119766672,-0.11106975506013723
-0.02388357904296323,0.0403642858721659,0.030778819592288214,2.1421469119148986,-0.16915720375455476,-0.11953922688176608
-0.023833307908601845,0.03859298810185694,0.034821780157963104,2.1545930516457332,-0.1747930898025107,-0.12582867018263635
-0.023922741343507314,0.03674748314647968,0.03831776869708153,2.15802848128714,-0.17688462571677696,-0.13251429170009896
-0.024117144793333888,0.0352813476451199,0.04146435064163662,2.151902517437495,-0.1765854078842975,-0.14323418086433748
-0.024500408467421447,0.033928029687500826,0.04409989363227511,2.140904643623834,-0.17897684923815732,-0.15311692548232295
-0.02479300952797428,0.03299627842365621,0.046676045384900895,2.1234628685495185,-0.18396260604976636,-0.16259886607019208
-0.02513577371163007,0.03234747480977108,0.04880777740345467,2.1021776212893313,-0.1914585247163588,-0.17291172703354551
-0.025516902412767703,0.03151125398846954,0.05069582741234813,2.0743293953015614,-0.20131817992072662,-0.18196250796347352
-0.025855507959047185,0.030431185177593453,0.0525064070417603,2.0372753700553496,-0.20649265746760936,-0.1899906951019683
-0.026047800613823904,0.029528085246757485,0.05374117255359623,1.9970958274184631,-0.2130434582425656,-0.19792045587166612
-0.026146260300955303,0.02903076589796628,0.054525437935871904,1.9537870345926176,-0.2223022614067554,-0.20909371400441495
-0.02616059669292413,0.02840079449949105,0.0552472490944104,1.9021153430227593,-0.2246911081296405,-0.22222933389110638
-0.026284049732248804,0.027439316869160988,0.05526418563629266,1.8479501269784187,-0.22380661811937047,-0.2323103169620801
-0.026890350965375703,0.026292723666694155,0.054020020435532196,1.798145161216436,-0.2250842241783434,-0.23970595897466557
-0.027723736317252258,0.024759775970161737,0.05214204894640636,1.7483790369417997,-0.22799753557735647,-0.24272645789232958
-0.028259775701175098,0.023093443532286248,0.05061890127329193,1.6865687903329782,-0.21840446088568255,-0.24911605450837235
-0.028448670480525712,0.02154584302124969,0.049266029447801334,1.6170693342403375,-0.20402936217694956,-0.258018800446303
-0.028467842357001706,0.01981147822871892,0.04721490261414217,1.553707834985353,-0.19945386291509698,-0.26236438221888786
-0.028238468109965744,0.017522277674493443,0.0447973538382849,1.493552169783817,-0.19693972250429762,-0.26135251807066523
-0.027854654741026774,0.01504900583411564,0.04201273381057853,1.4358432916690398,-0.1917978367213457,-0.2571312973786276
-0.027508402497256352,0.012753093812365248,0.03850271040838839,1.3847775816095937,-0.19279513502137838,-0.24959878018440768
-0.02733674839631662,0.010888440575469144,0.034445847849483444,1.335142419810382,-0.19236187312610908,-0.24339672505360066
-0.02763644368817245,0.009146954172467981,0.029874612586335447,1.2860983000226889,-0.18780240484845578,-0.23865211876239917
-0.028224145153758533,0.00758203292563908,0.02523413166209343,1.2380107145333767,-0.18575363792736105,-0.23629332982068077
-0.02848353227327998,0.005556981093233583,0.02122483813776354,1.186276363073762,-0.1834919397995065,-0.22993979267559242
-0.028257696710908994,0.0031746960581785716,0.018090236590967798,1.1285537213751156,-0.17969570113940564,-0.22089007991227966
-0.027693338485468618,0.0003341520194615629,0.015497708068029914,1.0662313682056237,-0.1753509292990889,-0.2077918778123255
