ax,ay,az,arx,ary,arz
0.298691999999956,1.6874280000001018,1.1133720000001013,-2.6016866719055898,-42.836654804923334,-1.7600999511401039
0.00427499999999803,1.8290520000000476,0.0007560000001016753,6.759856512390527,-61.19242689014609,0.02379070740210487
-0.4317479999999152,1.7020169999999668,-2.8064700000000165,24.678483182024593,-64.1867990505088,-6.787893569011083
-0.306404999999943,1.6402229999999685,-3.9751470000000344,26.0451149325994,-19.82677774925329,-22.09650824545999
-0.04248000000007246,0.9870660000000364,-1.449719999999921,3.0251810531027434,25.74399161529481,-11.321607359733532
-0.034335000000063065,-1.40763599999994,3.1406129999999477,-30.51097249778354,37.39876043507816,25.251619874966913
0.2441880000000174,-3.9688200000000173,6.664949999999958,-55.555329993468796,28.266838183805536,50.41781488586534
1.0230930000000082,-3.9001230000000553,6.108408000000132,-54.88599729345807,29.508385915897506,44.56261078602412
1.6144830000000276,-1.3440960000000113,2.7705150000000067,-35.193102284603526,39.48088217121752,17.67454273578939
1.4029110000000289,-0.25921799999999995,-0.36135900000009435,-13.242151918059752,42.86032121032315,1.6887757376369938
0.7110900000000142,-1.1364120000000144,-2.496816000000035,3.0204567364896295,50.47792615178207,-3.929687383946723
0.06436799999999243,-1.6642439999999648,-2.81250000000004,7.338576266200469,55.539836519587936,-15.047662359535675
-0.0514800000000315,-2.004155999999957,-1.0517399999999677,7.499708622972268,18.779475371440295,-11.67968826686927
0.4072770000000059,-2.1741210000000235,0.9665550000000911,9.268944699454629,-32.33066818516597,9.833475197789388
0.6248429999999972,-1.1990340000000266,0.4956480000000041,14.016168404533813,-32.01816392323215,17.974127424010188
0.3300120000000073,1.1690460000000236,-1.9328400000000245,17.81214278120964,4.732259001334738,-0.559451862435334
-0.4403160000000017,4.093253999999969,-2.6535870000000017,11.640219630251503,2.5458068374891063,-26.16761334872917
-1.8947160000000074,6.366032999999921,-1.0654560000000424,16.735555932453796,-62.5055006145168,-41.95033991492585
-2.3603400000000274,5.978979000000012,1.700252999999996,25.549388908851835,-116.71686223147485,-35.80689812098954
-1.4307930000000413,1.7501040000000856,2.7572760000000307,14.147476924879143,-86.63358023080093,-0.06462741173938191
-0.45962099999993233,-1.9861379999999484,0.7952939999999575,-4.894773608231162,6.479168407985874,23.177671776240395
0.576783000000064,-2.3594760000000825,-1.4148539999999876,-16.562321669325765,85.06124103642202,11.209582667510732
1.3316579999999634,-2.3680619999999597,-2.43704699999997,-12.300478669084214,94.54459594970683,5.249208613783063
1.3805909999999366,-0.4660739999998831,-1.035629999999954,0.6580339078032793,19.16195748176815,-4.514225011264017
0.9668789999999705,4.626278999999934,1.6822800000000138,13.545395459790521,-88.21607834926586,-38.55088450780136
0.5231250000000298,5.786693999999904,2.1606479999999206,21.56270266488365,-123.92704768535963,-40.35007735599996
0.25578000000006096,1.345823999999951,0.7331399999999988,17.195351059641695,-70.09363072896902,4.345802157613821
-0.04721399999997877,-2.9705850000000145,-0.03402900000002429,-1.0703240449410956,14.083281662682506,41.592863726319166
-0.07208100000002937,-4.668362999999965,0.42943500000003354,-23.5634891479942,82.65753968111369,43.28532171086535
0.3407759999999871,-4.912091999999924,0.06984000000010981,-26.588831288903236,112.30949225481947,27.08705096095485
0.6261029999999834,-4.300919999999975,-1.550070000000059,-6.7283621057574905,93.05223971824459,11.439272391577493
0.18665999999997185,-0.684080999999992,-1.8511200000000727,15.907963147464876,17.909121274165877,-18.427324597197938
-0.9235169999999626,4.880303999999969,-0.1999079999999931,27.41048914200861,-81.88095600970264,-52.982811845234416
-1.5573869999999546,6.661331999999964,2.562354000000011,14.354057142732257,-117.99031158479724,-51.555585703408994
-1.0411380000000525,3.9808440000000833,5.605146000000039,-22.915729203610137,-52.59769107559695,-18.766713478266308
-0.19269000000004533,0.8892179999999805,6.732233999999915,-52.61573601770455,34.85267843922456,5.20228433413874
0.07425000000003679,-1.5140880000001133,4.610906999999931,-47.07156487722961,64.35981070741468,11.007607225759442
-0.35234099999994495,-3.510485999999957,0.6746850000001414,-12.722862765444498,43.35742600725207,16.527501807368818
-0.9458549999999954,-3.3473519999999923,-2.6068499999999717,26.358058401885742,-2.1385976914513227,22.038956070304216
-1.0677240000000476,-0.9630450000000401,-3.319506000000061,42.16902366596806,-36.15308874527619,19.608355190170236
-0.7214130000000263,0.9020160000000388,-1.5553799999999618,24.412814032013053,-22.73546481164261,10.662310585009216
-0.2798279999999931,1.6797239999999602,0.3561479999999895,1.1736474237143302,2.34889538812941,-1.223392208805052
-0.031310999999956124,1.6342740000000022,0.9407249999999978,-4.0036799121476285,0.46242853313158416,-3.075630027837861
-0.16735499999999126,1.3321170000001215,0.6809130000000607,0.6203838623379809,-15.005896899315246,-0.7319456252848688
-0.5128560000000393,2.219562000000086,0.19889999999992414,5.213929285527508,-24.60881604022676,-10.388170980404343
-0.6810659999999802,3.6297539999999295,-0.34179300000010127,9.763004689128696,-24.684490198724003,-20.487448946626998
-0.5720489999999578,3.9593699999998955,-0.4730849999999398,10.760777532311483,-25.079350543152508,-21.27685458503523
-0.11930400000000341,3.603149999999944,-0.06788699999988879,5.742518425769161,-23.369081818679224,-19.272727416712222
0.37636199999994124,2.672765999999999,-0.03084300000000262,-0.006381649856956884,-5.668897688651602,-11.62619712548576
0.4424489999999781,0.8119980000001081,-0.6619230000000642,-0.1465593186283698,13.421527469788161,4.567571182240648
0.20470500000001612,-0.5038199999999993,-1.3805639999999508,7.280432418409211,6.243329210551218,17.29718183710458
-0.33002100000000256,-1.4428260000000526,-1.6594290000000012,15.359201843563763,-28.302658414209994,23.027128925107966
-0.4660559999999425,-1.1441249999999514,-1.349127000000061,13.5063614566024,-37.208470524937844,16.725045908217286
-0.07850699999999433,0.44373600000000013,-1.462545000000015,8.775870544863329,-4.944117420030967,2.5505711677658027
-0.0004320000000723745,0.17852399999995772,-2.6460089999999936,16.065303305741452,4.574673984153237,0.3562781189346165
0.5797529999999995,-0.33816600000001196,-4.096206000000014,28.308959901594612,-4.2467282407429074,3.2691191172792733
1.2539700000000376,0.8608860000000051,-3.355650000000021,-5637.854577186657,6.863856712437415,-1.4280553684383968
1.3471200000000183,1.4222160000000095,-1.1121299999999557,-5661.254995953082,12.170108103417183,-5.164105501948835
1.4505659999999754,-0.03605399999995762,-0.8152019999999705,5644.600540810395,6.939520054412309,1.2290497020535307
1.4964659999999463,-1.0067939999999942,-1.6297200000000012,5647.5671554296705,16.39550629246894,3.8560370614026285
1.8290340000000072,0.6840719999999467,-1.3852439999999855,-9.00163097715514,30.527126253687175,-5.417768345023921
0.9325440000000573,1.033407000000025,1.1380229999999658,-24.96991881875239,36.35407322809226,0.4035519710980706
-0.88919999999999,-2.0152979999999876,2.7016379999999396,-30.81066968304782,20.35000735865496,16.300476920933615
0.11630699999998217,-3.1851900000000657,-0.4634459999999674,11.513052577636929,-21.828110595615883,5.735548943922919
2.4637769999999892,-0.42230699999998844,-3.291083999999933,45.6953174562281,-39.59807189501976,-14.973451535428218
1.4024700000000112,2.503692000000063,-1.087226999999924,15.164636537415799,-3.0527832735543736,-14.442876968765894
-1.3677299999999615,2.9294279999999953,1.4715809999999552,-28.544411085599908,45.74719363630153,-4.010935406145633
-2.155203000000039,1.1569949999999718,1.2800699999998888,-35.85818412787085,48.85305033069272,0.5974391307460802
-1.2818610000000452,-0.499536000000006,0.5164380000000524,-19.970649339985915,8.696105436879842,-2.4214182563712106
0.9827550000000573,-0.07209899999996994,-0.1868939999999486,-3.3439173202796546,-8.60935660591684,-0.6262212103883114
1.8638010000000427,0.43686000000002223,0.7012259999999104,-9.64116918081217,6.713381713341398,21.538001034424358
-0.7317090000000526,-1.159578000000061,2.6974709999999846,-24.159023488408415,5.954849661403322,34.502590606876616
-1.5891480000000235,-1.4024700000000112,1.4105700000000443,-3.821875011581044,-11.002962853072907,1.7306468157195276
1.3681440000000433,1.859958000000067,-2.415060000000002,30.91330203662599,-12.435135140051578,-39.4950668040956
1.9436309999999901,3.1173839999999844,-2.907179999999965,24.822801994045918,-3.448784280049011,-33.534629240313116
-1.3621320000000603,-0.330453000000025,-0.21212100000000955,-9.308526771365555,5.612081264753771,3.85769940514209
-2.0294640000000252,-2.2195980000000173,0.17141400000000306,-18.526357055274413,25.021754393240876,16.45521440057218
1.6355070000000527,0.2763809999999589,-1.2975120000000007,-3.462752681634118,32.0817918253848,2.914348200906014
2.9886210000000637,1.1956320000000686,0.10849499999999734,-1.4984965586795962,-0.6589516040711063,5.988126514541303
0.40296599999997684,-1.1561399999999722,2.291795999999935,-5.591927225238846,-36.63655807900678,14.245654294914246
-0.9183870000000649,-2.420433000000072,1.0692179999999607,6.08735879132416,-32.280060058336446,1.8992784010170904
-0.4784939999999904,-1.633364999999981,-0.7326899999999359,11.6730633347232,-2.781085001424383,-7.678250269465092
0.6115410000000543,0.6411600000000517,-0.7595730000000245,-4.450360462285596,30.36912755960314,3.3961873663139297
0.8737470000000302,2.003292000000012,0.7876800000000683,-24.037066731034695,31.395222250420762,15.880033797902394
-1.1076390000000214,0.399113999999956,3.173742000000046,-24.684405333433457,-14.892952668868281,5.144096189707326
-1.6046010000000333,-1.2677220000000433,3.146183999999963,-3.495256797128077,-41.720036003367824,-15.406320785050532
-0.3283020000000081,-2.102003999999963,0.7751339999999773,10.027616913400905,-21.01595665798474,-6.134117996325328
-0.1725210000000199,-2.4358679999999913,-1.2151440000000902,-0.3055645620806846,10.416088537228966,24.816937071159174
0.5445900000000226,0.5081309999999783,-2.380409999999955,-9.373184847306115,30.774910091865838,21.955563103349498
1.3921650000000396,4.205700000000035,-1.3019399999998682,-9.522158970395278,24.13469866711672,-7.298501517431832
-0.5797980000000258,2.3895270000000024,1.8648359999999475,-5.8527049168732415,-12.19890096033354,-16.048793478764512
-2.4998040000000112,-2.459907000000028,2.62798199999994,7.648088152899124,-39.33103466394254,-14.065488340157328
-1.04452199999997,-4.265792999999979,-0.15991199999996208,11.19705788909453,-14.048522634158656,-0.716031833667996
2.0504879999999504,-1.85137199999999,-2.754918000000073,-1.6137681696504647,36.21848464791938,25.340679141274958
2.848256999999954,0.8076689999999886,-2.197044000000048,-7.011145353662673,35.65147600590481,29.227032747303294
0.14936400000006844,0.5527529999999725,0.5475060000000864,-2.6078512656039,-8.592582293513015,6.483930052016507
-1.5479459999999778,-0.06266700000003844,2.161575000000082,-2.492284066556616,-20.68385367232621,-13.29165578513054
0.20510099999995757,-0.19826099999996072,1.4106869999999327,-7.089866044885884,5.775249727625044,-3.100269455489446
1.2887460000000184,-1.4410709999999272,0.012869999999920445,-4.207630456108902,11.165661749417866,16.169997745554387
-0.7621559999999639,-2.31143400000004,-0.017648999999853032,1.410233441745179,-13.115025025001561,11.382708803468544
-2.312262000000004,-0.7347330000000596,0.6380010000000658,-5.120572146590874,-9.172261448677268,0.011702151028192276
-0.35919900000003224,2.373237000000034,-0.4920930000001267,-10.148880816229688,31.66876318685527,-4.629418858632128
1.4620949999999773,3.1817520000000266,-1.8976320000000713,3.5898620551795712,28.43269389833466,-16.528296213020678
-0.015029999999982557,0.936387000000008,-0.7988850000000158,15.224837709887273,-23.262668869792694,-22.437261818630684
-1.7543609999999932,-0.771615000000006,0.6031260000000871,11.639415453822455,-41.538877631912115,-13.049426463617175
-1.9341899999999885,-0.986184000000026,0.33903000000010675,7.296426498006747,-21.578288214620596,-9.378136728599529
-0.18667799999998735,-0.34333199999999064,-1.1931300000000866,8.304200423502639,12.365471540042309,-6.561434090154639
2.457755999999961,0.09613800000000672,-1.574190000000153,10.11331223473837,17.057359553449746,2.3396799021357273
2.86930799999999,-0.1115730000000259,0.9657000000000915,1.335739043208184,-11.023027117385684,5.045874580401977
2.0522250000000355,0.7527330000000026,2.760660000000148,-15.550008820015071,-5.027421132941553,0.7187117291063583
0.8196930000000047,0.43687800000001276,2.5250039999998863,-25.369011158750254,4.083568043364641,2.640155405290745
-1.265589000000017,-2.2522050000000156,1.719359999999981,-21.815910020057938,-7.642068251073398,13.874375704925935
-2.3577750000000037,-2.999780999999985,0.7602390000000736,-11.157597861569402,0.877339074968353,11.372144419789688
-1.6934309999999897,-1.5543899999999833,0.08961299999994399,1.6297600290431813,7.718891738619424,-5.5887716263670395
0.7132589999999966,0.3261509999999912,-2.1225960000000654,18.7894178572372,-2.710679876847963,-16.23793187151921
2.5105500000000003,1.7586719999999973,-3.856266000000008,20.054538645737097,-11.386693923366796,-12.052268385445087
0.445887000000017,0.2943989999999924,-1.4970509999999382,-6.226163031301679,-2.8928483079123017,7.626921722029301
-2.354337000000015,-2.0676600000000045,0.3547890000000553,-20.588449955608557,28.124978368854425,21.35453867184034
-1.1282400000000192,-1.5303509999999965,-2.502125999999938,10.366775913395898,32.71020194840906,4.791814094238833
1.812312000000016,0.14162400000002073,-4.241592000000027,43.179767984527075,-13.878173186690304,-15.77763495597464
2.285235000000016,-0.17339399999998506,0.31562999999993346,23.06670363454506,-45.336287078868494,-7.350437161568335
0.6613199999999819,-1.9646730000000308,4.030235999999965,-10.786355970425454,-28.01810745462457,11.466692074735096
-1.24154100000001,-2.6212590000000313,1.763594999999929,-12.560545666243739,3.0934156280495064,17.025973427608342
-2.474918999999995,-0.8583029999999908,-0.22064399999996986,-0.31165790464400267,2.597683091352583,-2.672735969593587
-1.7303489999999921,2.2281660000000287,-0.5315399999998971,12.895557476146191,-23.352509877032777,-36.88406103546171
0.45576000000001615,2.503683000000018,-1.0678319999999908,7.722167956648418,-5.967859624035476,-26.163494779982322
1.2248189999999937,-1.302912000000006,-0.0031950000000668943,-20.743893773879307,48.02074881387535,28.231097969079546
-0.33302700000001906,-2.1371850000000054,1.394639999999936,-20.803116564143533,30.950575743166464,22.764593957389323
-1.8947250000000027,2.708810999999986,0.2867130000000162,23.082135153349448,-67.3135957691847,-55.377926110750764
-1.6766999999999783,4.937840999999985,-2.370887999999871,42.5686980166192,-72.30295656349716,-74.47451154093869
-0.9578699999999912,0.5939550000000182,-2.071295999999989,-3.9985936628219143,56.04444479030104,9.745054416781374
-0.4317300000000246,-3.9053069999999996,0.7747469999999312,-41.39161425957698,106.67291517274748,67.63508752535242
-0.012879000000015628,-2.594664000000016,2.0694330000000205,-6.248668128180945,-7.079736624314359,12.876644547358108
-0.01844999999998098,0.9630360000000199,1.0911689999999474,33.29500496721334,-95.18970180693891,-45.16998853840648
-0.010286999999981061,-0.0660869999999869,-1.1352600000000712,12.220547723201713,-17.483386944729286,-2.8190699435846067
-0.1364760000000076,-2.7955170000000114,-1.1105369999999448,-25.812185281802737,72.41235515521069,49.7141054937267
-0.48195000000001986,-1.4325120000000109,1.674090000000128,-23.09302227957999,34.353229321818965,19.325899752544572
-0.2042729999999937,0.5252939999999873,2.8344150000000456,-5.857957180762252,-20.41194191272309,-16.189516889212175
0.5330160000000195,-0.9922139999999996,1.4191199999998405,-12.845256935171356,0.11767560614604489,12.404906411578121
0.5175629999999848,-1.2213809999999798,0.024749999999862382,-16.76475074721471,17.304804109343316,24.97594870420654
-0.2021400000000173,1.7458020000000019,-0.24204599999989584,7.3389698360731614,-16.33408188131607,-18.932769314328368
-0.6343019999999894,2.0093039999999953,-0.03959999999983976,19.49738831853196,-18.84854574469636,-29.746584623530616
-0.7381349999999925,-0.9089459999999883,0.7804619999999707,-6.073330859609127,20.087763062234448,11.087962180580902
-0.31112099999998366,-1.1097990000000086,1.3756499999999394,-17.063144828511856,6.806155157155347,13.180115069552501
0.6849269999999963,0.8540189999999975,0.8169569999999959,-1.7381875708698313,-21.079425452762322,-12.632289613548764
1.103345999999958,0.4523309999999975,-0.1836000000000837,5.74994432779965,-2.461160378249816,-2.5435693206940613
0.3287340000000055,-0.47894400000002835,-1.1730419999999686,13.169380782312823,4.454812813982673,6.059583423667703
-0.7634609999999514,-0.0506339999999772,-0.9183599999999292,12.338369015097772,-1.6039829017452545,-2.8786573982009456
-0.8836379999999949,0.2789640000000232,0.1451250000000015,-4.066490446086002,7.492347857018861,-1.0898533614354555
-0.23046300000004738,0.5733449999999751,-0.17424000000001438,-3.894984853676542,3.19999736341533,-2.29160079466304
0.14549400000000712,-0.04550400000000454,-0.5890859999999831,5.9600121202306955,-1.642997334900781,0.0855202769740604
0.1433430000000402,-1.120094999999985,0.2708100000000435,3.228725316129921,-2.381908254891607,9.850379220307538
0.43987499999998403,-0.07810199999998269,0.48471299999991446,1.32074136411795,-10.127341483315172,0.22912014149885085
0.7510229999999785,1.04799599999999,0.05376599999997733,-5.319598476432086,11.338506385637459,-5.9315074362247255
0.4922459999999962,-0.12702600000001063,0.7094340000000865,-17.205965752139864,22.146980124414128,6.506815135822297
0.06565500000001445,-1.066868999999998,1.1880539999999606,-10.216347702035744,-7.896385540257789,6.960954782413564
-0.4647779999999907,-0.7956540000000178,-0.04835700000007659,6.482051919478815,-12.47713493819777,0.7195225517196091
-0.7724790000000259,-0.690093,-1.3570559999999343,12.463155766186063,4.336006866539466,1.679412969741012
-0.2716559999999979,-0.26693099999998693,-1.025099999999901,4.9587209855345815,3.5656900263338454,1.116329710232633
0.3218670000000229,0.466074000000008,0.23751899999993054,-7.929593208822849,0.16672489655537026,-1.1306385325324575
0.07296299999998979,0.6960870000000174,1.0292399999999202,-11.113981465671197,6.13605450649275,-4.354716275554216
-0.45490500000001655,0.27550799999999376,1.2693600000001304,-6.14440249969026,3.3029706950101714,-2.4694967327363315
-0.22230899999999276,0.05235299999997167,1.0956600000000316,-5.1897247123797285,-5.0823403139810654,3.8749444095165897
0.2652210000000127,0.751878000000003,-0.46071900000015376,5656.618563089818,-1.9935805158146858,-2.966578615934412
0.21201299999999146,0.6677640000000123,-1.6935300000000875,5666.971564050645,4.2638756547234316,-9.351984645522426
-0.011582999999998345,-0.5793480000000129,-0.7543439999999291,-5645.017958025339,-0.5970096866970087,1.162466032897691
-0.06610499999997743,-0.8505810000000086,-0.0739799999999291,-5646.233918122679,-8.812077983283206,5.753452429420647
-0.1184490000000038,-0.2746709999999847,-0.1485900000000262,5.727168523349224,-2.178276373483079,1.8032588841111696
-0.08711100000001193,0.16822800000003135,0.6120900000000651,-8.83239832112559,4.175851089288568,1.4222453659986423
0.12015900000000301,0.6428789999999962,1.1169000000000429,-12.680140997254608,0.14469719914566026,-2.9534765704974264
0.24290999999999063,0.18196199999997165,0.45211499999988636,-2.274304418911788,-3.0232798255224735,-1.292967132976175
0.3055589999999886,-0.4059810000000136,-0.6636150000000729,5.460523697537134,-1.8104067349996977,3.440121414544972
0.1935359999999997,0.1939769999999924,-1.0901159999999521,5.316359007561733,5.224876444936627,-4.374319239093638
-0.18496799999998814,0.54502200000002,-0.3500099999999229,0.04315636934615341,8.446299343539982,-8.707540934195524
-0.5857919999999933,-0.19569599999998688,0.03431700000007254,-0.07387776092402376,1.615745821104439,0.2571497805590406
-0.5372910000000175,-0.6265529999999964,-0.444150000000032,4.797235384889831,-7.021260446626548,5.615250275932793
0.26951400000000125,-0.12274199999999236,-0.2614410000001288,-1.8614059449934217,-0.4151133301287524,4.149650996608623
0.5638950000000281,-0.28754100000003,0.23559300000004502,-11.073350405141902,11.585484356884107,5.3148102481516135
-0.1326149999999915,-0.8952030000000027,-0.2480399999999383,1.3999460106969508,1.9468966245022035,0.2118369520062835
-0.42785100000001797,-0.6651899999999683,-0.7704810000000784,16.95446493423587,-7.374855816270872,-5.044690878568225
-0.19440900000001482,0.39051899999998363,-0.6971849999999891,12.630755239068092,-1.271358622541896,-2.2060535903674072
-0.3879720000000003,0.9724679999999764,-0.6357869999999322,1.4572727041975764,6.237709422711543,-0.6836305024099598
-0.6990839999999887,-0.012869999999995385,-0.2544840000000437,-4.040294538645961,8.53926262759341,0.248385334061485
-0.05363099999999843,-0.9261179999999924,0.14233499999987131,-0.14007451361179868,-0.08833012620832192,2.0832371352027312
0.8836289999999747,0.15793200000000507,0.190872000000053,5.077092969517372,-12.577835081455573,-0.3810063652636142
0.5506020000000056,1.2574170000000218,0.6817500000001697,-2.2313444030271246,-8.701632371281912,-2.0541057793183715
-0.2364659999999852,0.07380900000001911,1.173888000000023,-9.445861213667506,0.08256073510710948,3.1520163161870673
-0.0587970000000021,-0.9183780000000197,1.1415149999999263,-10.494020198485687,-0.7291352151839042,5.023657915274393
0.16221600000002334,0.42228899999997294,0.38205899999989024,-9.06646866166052,6.036023530758617,-6.647722759353147
-0.11587500000000972,1.239389999999993,-0.5486399999999891,-0.2527899988356008,10.226005223084462,-9.593654150239272
-0.030474000000021984,0.14419800000001481,-0.3756149999998848,4.2497713678126825,0.8866924015681649,4.500937017522477
0.35276400000002206,-0.3519089999999975,-0.2971800000000524,4.061156029076685,-6.152524405879331,6.452783802377904
0.4085640000000029,-0.22659300000001104,-0.7701750000000396,4.40978413652342,-4.112143692074549,2.1477668694915852
-0.056214000000012754,-0.45490499999999157,-0.7241039999999588,2.486576505018423,2.5332376928391187,2.1866873199205106
-0.8068050000000188,-0.2557889999999813,-0.5193180000000353,2.524443663602405,12.22048551350035,-3.903622344935176
-0.765602999999998,0.7149779999999911,-0.1851119999999873,2.8054697485092817,9.83502558117099,-10.949078009135139
0.2973870000000184,1.2711689999999776,0.4749029999999821,1.4474955547894908,-9.566541025422046,-6.843353026643184
0.7892009999999922,0.38537100000002045,0.695340000000011,1.6834597425842368,-18.236289324901964,5.461423629943529
0.40513500000000924,-0.580221000000003,0.7301430000001274,-2.8705296856601503,-1.5981991269223417,8.269689292518878
-0.02875500000000253,-0.6411510000000314,0.7711019999999014,-9.146974392378748,13.460541357980707,0.8002612558941635
-0.3368880000000102,-0.18453599999996573,-0.28194300000012884,0.7694357892693127,-0.14038792716014936,-5.0880464444732265
-0.3686309999999887,0.06952500000002582,-0.8874359999999193,10.087068227277962,-9.400618941377845,-1.631733726354967
-0.21029399999999698,-0.2291670000000301,-0.08360999999995622,6.128895704486359,-2.3736066826545104,7.281052450193526
-0.054936000000010976,0.23688899999998736,0.2929499999999807,2.855693149851035,0.6842670987424457,2.688683141560144
0.06051599999999657,0.8145359999999963,0.043523999999972585,-0.8181988506033466,1.1615563955013342,-9.765002815562008
0.43687800000001276,-0.6093899999999874,0.19305000000000572,-8.25015231736641,0.9000675486214105,-2.890610954692985
1.023534000000001,-1.8273419999999736,0.355752000000098,-11.297871824824002,8.917556469342845,10.770217224784773
0.8548739999999971,-1.20592800000002,-0.5777369999999116,-0.2752248680435887,12.026186670343424,11.497987532545118
0.045486000000014015,-0.27809100000003306,-1.3770900000000807,11.283827490605614,-3.2679334068574444,7.40725126249997
-0.455337000000014,0.39825900000000636,-0.5535990000001267,6.144095500778768,-6.3506672508098765,0.7233277617938461
-0.5930820000000281,0.7664760000000381,0.7833330000000083,-3.0700061392888056,0.31292559604466696,-6.690946315909296
-0.3325859999999764,1.1698650000000173,1.7294940000000425,-8.033811506324007,-4.278389582202658,-10.88451942931532
-0.12103199999999315,1.0745909999999803,1.831841999999928,-7.728577078783427,-9.820532529089197,-9.368771993962177
-0.23089500000001983,0.155357999999986,0.24014700000004607,4.11094741658693,-9.367663478281024,-2.5036633577685263
0.13734000000002744,-0.4360140000000179,-1.5164729999999071,10.953444504757215,-1.483899008988954,4.131206590215619
0.2974140000000042,-0.6531749999999975,-1.7612550000000615,8.090010203668951,2.870549085567066,7.250557261457513
-0.23733000000003002,-0.3716459999999755,-1.2301919999999633,7.0577516598270496,6.518354916081596,2.7903740457218884
-0.4905270000000017,0.6282810000000111,-0.2935800000000488,1.3173762834834069,9.408256064094868,-6.328327951572188
-0.4064039999999908,0.9879029999999955,0.9715139999999289,-7.960464744840001,-0.2574974228111976,-8.062568696852269
-0.06780599999998138,0.3115709999999716,1.5299100000000787,-11.020713104509294,-8.58527472843738,-1.3058548319687668
0.4965209999999942,-0.1330289999999984,0.8754300000000437,-6.908347332597975,-2.2642359541281,1.8847799328046921
0.46305899999997124,-0.4179959999999844,-0.5707800000000263,5.386266065034118,2.5672408507546205,2.039393529678213
-0.09783899999998569,-0.6480270000000093,-1.4223960000001146,13.424216595788119,-2.27033443395756,2.700750351641523
-0.036485999999980034,-0.2660759999999873,-0.647873999999915,3.845994522739371,-0.20019470155992009,1.8206641910656796
0.34418699999999025,-0.07123500000000005,0.44656200000016133,-6.614202896604482,2.4618177039123896,2.907783492598859
0.0201779999999957,-0.23861700000002706,0.5229719999999105,-4.975385972532953,2.6942616577662304,0.12744452139052953
-0.4205789999999987,-0.10986299999997673,0.1743299999998671,-1.3313530905862958,5.853249414666002,-3.135836182754792
-0.21028500000000172,0.9183960000000352,-0.44746199999998737,3.264556410011066,2.3186247184296,-4.950895851289805
0.0133020000000178,1.2960359999999782,-1.177361999999893,12.915719414371152,-9.669549339645124,-2.97334401379874
-0.21457799999999028,-0.13905000000002665,-0.6753059999999644,11.272745515153915,-10.80556559163531,5.000185225775899
-0.08839800000003395,-0.782766000000007,0.3207059999999595,-1.5796406255981221,2.768722230580833,0.8684716715944729
0.5561819999999912,-0.8926290000000087,0.30396599999997775,-3.7721016064124147,2.3306527136942985,2.6210389188747074
0.7673220000000175,-1.312361999999978,0.05881499999996764,-2.8006191517566226,-4.2817840312082405,16.399897963040246
0.007722000000007223,0.14504400000001916,0.08623799999997184,-2.368012758731197,0.292483235512532,3.202733601060892
-0.8557289999999967,1.6925849999999854,0.25040700000004135,2.705060756056721,0.6216363429560063,-18.800843326888984
-0.5506020000000306,0.6814980000000026,0.9525959999999944,-3.1604200185614495,-1.364709901048923,-9.055156164109613
0.3261509999999912,-0.9226710000000082,1.0102409999999784,-8.433556068672798,-1.138305895857087,8.773885812046833
0.6497370000000335,-1.2351059999999998,-0.06507000000002261,-0.3596867905120149,-0.9599567297422485,8.720152756805577
0.648882000000009,-0.31415399999998594,-0.5606730000000004,2.0175568774925434,6.756606364674151,2.154297394437399
0.10300499999998936,0.7973639999999921,-0.48491999999985547,2.9610972919459133,0.9479372900994931,-3.013172666285624
-0.9934830000000061,0.336465000000008,-0.20568600000004933,4.492663817478038,-8.219181513955318,-2.6488191386127014
-1.1917710000000026,-0.1673640000000115,0.08954999999982727,-1.785204205942259,3.8892902644431886,-1.7247675477346736
-0.10858499999999993,0.3982499999999861,-0.33976799999991814,-0.0862617734906479,7.9242073421540375,-1.841254874745779
0.9995040000000094,-0.48923099999998443,-0.24367499999988773,1.4527466382991072,2.8851127048107843,9.976516303938011
1.024820999999998,-1.0445490000000057,0.46460700000000577,-7.792084193570803,4.978342658245498,10.780590462661843
0.08969400000000127,-0.17166599999999532,0.1560599999999912,-6.222903815597158,0.808198580513349,-2.0653498000768433
-0.5184179999999844,0.18623700000001964,-0.694719000000088,1.952741309813133,2.903577516999724,-1.5785937752667012
-0.36135000000002415,1.0848960000000019,-0.8818650000001038,5.206077673765153,5.80506305536898,-1.7073550876532728
-0.33430500000002084,1.5732900000000023,-0.14561099999994553,7.245893294553829,-15.201010094832005,-5.757790319563139
-0.03689999999998694,0.29612699999998215,1.330920000000102,-7.2074709048259855,-7.998703173935086,-0.21827583720570587
0.5733450000000251,-0.0875520000000296,1.7079210000000566,-20.11783378493699,16.852532269947584,-0.6976376513291083
0.3021120000000044,0.5347169999999984,0.6405930000000004,-8.29409803936021,1.7616402438630219,-8.181242598073469
-0.29010600000002884,0.1296000000000297,0.3745619999998895,-2.5886748906323476,-2.5158625304791675,-2.238647471067834
-0.43172099999997937,0.6471630000000145,0.0941939999999808,-5.023217968413052,11.518762848308901,-1.9994224270984073
-0.20384999999999154,1.2608549999999858,-0.7786259999999379,4.1374390992372945,-3.9522297081977857,-8.251331406687191
0.3832379999999691,-0.8831970000000022,-0.5799599999999905,9.101947972843893,-15.066043091312384,7.262508445612026
0.31456800000001783,-1.76467500000001,-0.17473500000000364,6.319453755856719,-7.155371511240584,15.047008199753332
-0.7673309999999878,0.875474999999995,-0.593217000000057,7.244723347233606,-7.106796174145328,-8.597814625167489
-1.37758500000002,2.2599180000000274,-0.3389399999999543,0.9859474539953172,-1.3873338818233951,-23.050057128263646
-1.0449899999999985,1.1080709999999938,0.5565330000000812,-7.693361560058731,9.050031062072463,-12.576181558991895
-0.40339799999999926,-0.5106960000000271,0.38317499999990234,0.7082932459221869,3.852246060680574,3.195255712350842
0.4042619999999941,-1.785275999999983,-0.09933300000002365,9.412636465131108,-4.618182714242314,15.062087304701821
0.7664670000000179,-1.5500969999999947,0.31083300000011027,3.168610963423024,-3.6309919605171395,10.349572881805447
0.5167079999999852,-0.8076690000000136,1.052099999999978,-6.538485014201267,-0.5054077565115292,-1.4090098927070915
0.28538999999998815,-0.4720679999999755,0.6709139999998781,-6.247157444070739,-1.8791403156828799,-1.591699651792533
0.40253400000002937,0.175095000000014,-0.9983160000000102,5.613354315168806,-2.0223677803847413,1.4705044816786694
0.6424380000000035,0.15449399999996616,-1.248632999999899,9.284951305414513,2.5394326904122217,1.536699536244801
0.5446079999999881,-0.1682190000000111,0.5844420000000294,-1.0815149913606437,1.432946174232065,-0.8773469630006803
0.2042729999999937,-0.24547499999998945,1.8874619999999287,-8.876483445606143,-3.7526381582578248,1.9850059913456342
-0.08541000000000798,-0.6291540000000012,1.3674239999999727,-9.03565928226362,-2.0802494341912516,6.305574945848269
0.08283599999998892,-0.781064999999978,0.061614000000043134,-7.282240196226253,6.175556324081813,2.7774420017895762
0.0030060000000164955,-0.19482299999999675,-1.2091500000000477,2.707116709039381,4.171112899731798,0.627791164988234
-0.6956639999999653,0.8626049999999746,-1.6241400000000406,11.670843987291768,0.29054742924628507,-3.8838409969851106
-0.7999380000000111,1.3449600000000062,-0.5362199999999318,4.131860205749316,4.514034531820799,-10.384562361144734
-0.3634920000000208,0.8565840000000213,0.1550069999999959,1.286687826480204,-2.4198384790613674,-5.458723393891973
0.046772999999986076,0.3029849999999945,0.24170400000007586,5.093542120594607,-10.323161173355969,4.11948232566981
0.2411820000000009,0.3201569999999737,0.30144600000010513,2.752668202824715,-5.522970164702879,1.9735554986979764
-0.032183999999971236,-0.27208799999999533,-0.11791800000008346,-0.04910377424351964,-1.1603560281483434,-1.1382275301935474
-0.07595100000001576,-0.9879119999999908,0.14996699999985097,-6.259692738877298,5.544223145639315,2.140269099068859
0.2201489999999806,-0.1896750000000086,0.023724000000002743,-3.713061113197247,7.116611872836604,0.5253717434622551
0.21413700000002256,0.9166680000000205,-0.6887249999998457,6.802335120774927,-5.9008273715455335,-5.25508107193422
0.007739999999997749,0.3913740000000082,0.029249999999991783,-0.5936468079279056,0.3070655769309233,-6.779043625883352
-0.2347470000000157,-0.8952210000000183,0.1490039999999082,-5.9003306683813594,13.249589953827032,2.5523975753419803
-0.7497449999999767,-0.7733250000000053,-1.4743350000000044,10.594384010173119,-1.5726972524988698,9.452123463978014
-0.7634519999999811,-0.2188530000000133,-1.3531770000000276,13.866074418174135,-12.30891509294644,5.99790250407739
0.4398839999999793,-0.14076899999999615,1.187999999999989,-12.326846366134392,8.79986544084333,-3.4924540405528504
1.177154999999977,0.38708100000001966,2.072412000000101,-23.92408406097184,20.882044259932382,-11.878872920048922
0.46907100000000423,0.3459059999999847,-0.20695500000003086,6.166220110099774,-11.940394372193236,-0.011900456502433876
-0.11628899999999165,-0.7355609999999985,-1.5258600000001121,25.05890888649396,-26.44385809179322,14.252476675775894
-0.027900000000002922,-0.77505299999997,-0.3968369999999055,7.457538600742097,3.3772665718967225,7.285532457848776
-0.21501899999998297,0.48322799999999666,-0.266237999999952,1.19242008776399,6.608785747832574,-1.3348554534146517
-0.5475959999999891,1.1501279999999643,-0.7770060000000911,3.786837329259951,-5.518001732070216,-4.6821627965179635
-0.7621650000000091,0.5553269999999916,-0.314019000000032,-4.967863682402562,7.58016354302557,-8.001165005826861
-0.6510330000000009,-0.20771099999998266,0.2995200000001197,-5.2513254945293575,6.017161138770327,-5.747551045197352
0.4587569999999874,-0.7475939999999848,1.2613590000000952,-4.297320517236924,-6.80374298858426,3.3415259572926237
1.3853159999999727,-1.1158019999999964,1.8954809999999545,-11.125227753670464,-0.05676485083850602,9.741319875728772
0.8179650000000149,-0.6952230000000226,0.9665549999998913,-9.42894401299359,4.03897109885965,5.861714135835494
0.0017010000000539094,-0.2815110000000065,-0.18855000000017608,-1.817306861044088,-0.30055189523755244,2.470356988185207
-0.17854199999994824,-0.3124079999999807,-0.4717260000002055,0.9542351144245842,-1.5663922363216398,3.257990114957776
