ax,ay,az,arx,ary,arz
-0.005576094331862776,-0.0102060622023389,0.011160663002546652,-0.29419478974831,0.10824964207901352,0.3403579081008982
0.0069208971054807705,-0.06689581543282203,0.10802044917806773,-1.2652697170678375,0.8126097276436952,1.1195739315508606
0.035857374714610896,-0.14100333928969816,0.2406211022490759,-2.683335313116368,2.027818514170021,2.1371582459948635
0.08129935425572932,-0.23525325846174505,0.3769965031728165,-4.319017406815987,3.816755090967683,3.3118519703154896
0.13505519866213966,-0.3462720877946975,0.4828204460994605,-5.947428366453854,6.394308215124891,4.3787336079506485
0.1889174245268029,-0.4716606464939518,0.5487497257235159,-7.380520136377461,9.481979718795493,5.118840302099432
0.23921750778879763,-0.6107207218801557,0.5860287827061378,-8.414865228261787,12.254082824419271,5.6508630117884495
0.2884508625097787,-0.7513967216546109,0.6116525444262536,-9.015094913450769,14.193236072002799,6.122295194942813
0.32999291949470355,-0.871387803843731,0.6006436404617823,-9.025403800929752,15.464581492276604,6.498945412099839
0.36350384914433115,-0.9351702997044509,0.5511130867902474,-8.62909523413364,16.282926041528583,6.541408694972408
0.3739745315834452,-0.9216619577768353,0.46991965982651845,-7.914884682295503,16.33380659769854,6.14313027693445
0.35321043356538695,-0.8193834510543136,0.3863999268380851,-6.84038300651279,15.107421459072537,5.218661521527229
0.31116756259404876,-0.6670969626354313,0.3275378420103876,-5.591155057328356,12.733987431029773,4.087581540980032
0.2554134361607182,-0.5114170585604187,0.28561315962838246,-4.320655563318057,9.896386028199572,3.0896755834269065
0.19892560245389546,-0.37175802000576624,0.2512515510756336,-3.2318201957835964,7.406740315935822,2.2445305499420245
0.15043773397891363,-0.256967281601455,0.21139598093093592,-2.348794133422249,5.65099666859083,1.534381185446489
0.11440702232205602,-0.1750762065344562,0.16454283225467475,-1.6431376421722597,4.570266816296737,1.0165925952773103
0.09035639905311915,-0.09639352054035677,0.1251159172953803,-1.0402878279016425,3.573929357090524,0.470115236868482
0.07555746741649833,-0.005215310305455301,0.09857826817242632,-0.4671762071020149,2.313651968933165,-0.20103148007715266
0.06782579980373549,0.08991254886275946,0.08238435687184428,0.10132642295595673,0.7803084263500413,-0.8822026863970214
0.06436951270891325,0.1735944542058927,0.07159891208053276,0.6414644957039224,-0.779904710823784,-1.4152071854136739
0.06291246311410073,0.23560872175668207,0.06592315814433053,1.074137669388354,-2.0970978712966764,-1.7292331313301976
0.06353881881968525,0.27240522619411783,0.06535481318677641,1.352715459241677,-2.965612370312124,-1.8548990742275304
0.06646609653996256,0.28274314682722496,0.06388869107492734,1.5137925532805676,-3.339183146772476,-1.822820184620843
0.07152579196619074,0.2723650908751678,0.058365019110001595,1.6154618061002664,-3.322479071625064,-1.7080679449450142
0.07601492570478863,0.2580080490140991,0.04993870071265698,1.7204846191889056,-3.199096346032796,-1.6380130717981105
0.07734675787443822,0.2519242863592282,0.04270332998397462,1.8517259863340034,-3.2021141834976636,-1.6772892390817167
0.07513530386950004,0.2552003445454178,0.0438135022794644,1.9630910963215216,-3.355842932162753,-1.7995962550281903
0.07064178670932537,0.26519423809157966,0.058892666283109116,1.983751986340232,-3.5302579966342353,-1.9565545474006392
0.06494790201830737,0.2775349344085708,0.08793075670240241,1.88518031551125,-3.6351142581509857,-2.121004205573302
0.05834259058754914,0.2871297459449849,0.125767817443526,1.6947545251976543,-3.640184644580407,-2.2687120938158407
0.05024263251076263,0.29006742944283576,0.1654424772697381,1.4730903790832213,-3.570049643758953,-2.3738242925557556
0.040316864645586724,0.2881204076513047,0.20147746057487476,1.2826282966601554,-3.500689320651983,-2.429873330741034
0.028840878359629646,0.2832324416403856,0.23274070476736453,1.1363206749630064,-3.445512159043524,-2.4361645843511397
0.016345217287855297,0.27758041837545233,0.2602037213978934,1.0198926392324275,-3.3911703607560915,-2.4098479435083076
0.0035576516337249148,0.27276271430882776,0.2848561356437225,0.9227860108020829,-3.332838090394366,-2.36506423999724
-0.009235189485904363,0.2687860323910441,0.3071152513878586,0.8430516864845152,-3.2839816153461503,-2.2999294373055434
-0.022028454308616975,0.2667539507844133,0.32709753676534714,0.7793684226652797,-3.256215335264022,-2.2295796221377238
-0.035025168356597386,0.268201170013377,0.3445542154464655,0.7348248068410578,-3.2588856898675456,-2.1678061140064573
-0.048129827671450735,0.2745548525977549,0.3591367910761913,0.712009315951692,-3.2913944924920266,-2.1257247870891636
-0.06126820930510815,0.2857100620873245,0.37120369257637204,0.708327741069604,-3.363190936683807,-2.1059302359550243
-0.07368709207163965,0.30217393177700175,0.3810688435764005,0.7179776444997926,-3.4617333823247196,-2.1129968654626943
-0.08525364614193676,0.32194734094709493,0.38859016933620993,0.7358226041974177,-3.569152688538818,-2.1331182281938394
-0.09565164397013104,0.3437804547286687,0.39337936672826934,0.7621641249687746,-3.67044501599317,-2.155408420171841
-0.1051726087317858,0.36597057392246285,0.39500461507975704,0.8023317029999181,-3.77823048311303,-2.1663108346324833
-0.11418168144752613,0.3868847177349607,0.3934582434392248,0.8592047326074457,-3.915150555279821,-2.157970909214254
-0.12244926863959649,0.40719840863406803,0.3889998691137304,0.928217587419698,-4.063851302072625,-2.1364223617627704
-0.13007743873215163,0.4265854012960233,0.3810773121167001,1.0115119530499856,-4.214163157243027,-2.104098844247045
-0.13700291684988908,0.44430519917309,0.368941804566657,1.1159341726877279,-4.369715866561179,-2.060027891422871
-0.14240699297931678,0.4608453726824645,0.3515263461058153,1.2477680015015569,-4.520896656186167,-2.0074701651156106
-0.14640495313528976,0.47672623575352135,0.3305589236811397,-6.391814588801435,-4.658223301987606,-1.9509314083274185
-0.1483074416148841,0.49188541449174855,0.3061514091546338,-12.624793104588829,-4.783124015891855,-1.8917223086861599
-0.14833174026478832,0.5051815841178438,0.2789666738249671,-17.651914495244853,-4.88891416714841,-1.8251802530287085
-0.14594158888095354,0.5170967744804079,0.24870106476489745,-21.63660410289346,-4.965868037425084,-1.7576689762117719
-0.14105149717700133,0.5285042247504046,0.21662201520684293,-24.727089073169843,-5.005744347157806,-1.6917374709685737
-0.13478087760734186,0.5382933577678644,0.18475267605523174,-27.06019018019872,-5.00129187393674,-1.6177960026430882
-0.12762238427541284,0.5450630040531682,0.15322716395998867,-28.7330396452602,-4.968788281570464,-1.5345332861723804
-0.1185247246770606,0.5491009546493463,0.12046022497710657,-29.811767116832236,-4.929091852467916,-1.4519915241048054
-0.10723591406477254,0.5515699935829748,0.08671004547775976,-30.37305779126727,-4.884130358581142,-1.3742902290862642
-0.095009697429766,0.5535933897199397,0.053288305591386725,-30.50140217936427,-4.817096066074869,-1.3015948111048044
-0.08254924522860407,0.5553915785233537,0.02048457305532614,-30.265622357166777,-4.711090011706733,-1.2327131787191252
-0.07058048772771999,0.5564601021023305,-0.011150389865206806,-29.723678221407134,-4.5730288054883586,-1.1672691214843651
-0.05882691207461073,0.5566401194600173,-0.04181612795344761,-28.915858344718536,-4.414600195398827,-1.1082356645988694
-0.04623500934169779,0.5564222023256028,-0.07143479355031312,-27.88158706749443,-4.232893678490135,-1.0489951136183273
-0.03347465351236094,0.555282049326964,-0.09883476750142367,-26.66475143936572,-4.029320286000549,-0.975089304559372
-0.021589059935477564,0.5523466428399618,-0.12335092084735987,-25.297489507646294,-3.8114298161306226,-0.8871315580906087
-0.00990191166453458,0.548412824345293,-0.14622845958726233,-23.790732291847448,-3.5877397955620083,-0.8035388713269935
0.0026137833901146573,0.544968325504118,-0.16864250317155374,-22.159923891426267,-3.357188059322824,-0.7352551644537273
0.014993004614402242,0.5415007447994901,-0.1901287813432668,-20.43325781607043,-3.124486892424595,-0.6774951848680133
0.026189595978317486,0.536765615600632,-0.2103208625945646,-18.63896375353674,-2.8816980624117914,-0.6202183526972628
0.03685626329008657,0.531114465540257,-0.2298989995471394,-16.792301348219716,-2.620514837168486,-0.5673892827953047
0.04845460721983884,0.5254005207357509,-0.24894822734328453,-14.908833451619845,-2.3416753227161675,-0.5169882836070359
0.06031355706777743,0.5188224546943753,-0.2661031252889693,-13.00771945304492,-2.065798308274936,-0.46234497433160204
0.07215284173338728,0.5108136608709269,-0.28129892234455134,-11.09919897343114,-1.800764801805839,-0.4043948637921039
0.08367246448146229,0.5008783349587125,-0.2949389899171593,-9.190038642008624,-1.5496140318852085,-0.3481871314878772
0.09485240641972155,0.48930471322579666,-0.3072158995740014,-7.293499320065386,-1.3025088203534034,-0.2929432032845821
0.10635885964088931,0.47729998762623316,-0.318215987858811,-5.42737476039154,-1.0455175850070964,-0.23283652752430378
0.11742778076520624,0.4647487961439974,-0.326771875868189,-3.609543555335179,-0.7885986701588468,-0.16546595257522045
0.12734985225829115,0.4513322694111742,-0.33199960249564914,-1.8470076210946598,-0.5494399164929871,-0.09966217986525644
0.1364123443775721,0.4366951958768195,-0.3341626166774756,-0.14008063465881193,-0.33141864713678815,-0.03996512660217216
0.14441103566004343,0.4200699623333509,-0.3337896045290851,1.5040122347140983,-0.13152690735227335,0.023591963765576096
0.1513482046110592,0.4014734906123279,-0.331848610500589,3.076039955462784,0.06143911893267551,0.10053397550296778
0.15808083220066255,0.3830974216334335,-0.32916779203148516,4.571196479005945,0.25552739859530615,0.18067030684891533
0.16436496279018226,0.36570771011939146,-0.32496273091080313,5.981614876511641,0.44611276948463385,0.2609241481630881
0.1690999606287676,0.348286256551364,-0.3183617871129408,7.30871734838925,0.6167084590205267,0.3360634306011505
0.17211471378358803,0.32948044424276973,-0.30973089575288704,8.555535877610854,0.7612382417453372,0.40255397745958454
0.17408365257557717,0.3088525755949796,-0.3002541208901175,9.717550812025529,0.8962893426565124,0.4715080304770813
0.17639732627105426,0.2875125509002072,-0.29086790561704445,10.791285805437113,1.036605144337673,0.5502389789615327
0.17871687178476936,0.265511117781726,-0.28121320232030905,11.775603920108843,1.1725930256456452,0.6398601050185173
0.18028339673596883,0.24304513449206977,-0.2706248752901789,12.671252135442552,1.294926940250031,0.730622970886759
0.18115404609876812,0.2203206870822576,-0.2587446326425543,13.475299073960453,1.4071591467908275,0.8198713502313879
0.18221736769275612,0.1972019956115795,-0.24596258764573203,14.187684883634017,1.5173386354375529,0.9144671073030901
0.18299023809787712,0.17291854266132956,-0.2324776561219143,14.81190608867459,1.6166876840885294,1.0159515562743238
0.18261700160631394,0.14754894988455006,-0.21812422392705555,15.349378284481173,1.6991908972043053,1.1202964687985808
0.18087235990743764,0.12198837707419863,-0.20294334617121207,15.796527176863158,1.7762813459057698,1.2271547706986385
0.1789880930916905,0.09789517578058726,-0.18815231866005347,16.158538573700795,1.8655265411521538,1.3301555291191924
0.17658487566522602,0.07503133981153634,-0.1737656132799253,16.444724221447018,1.9473815176640574,1.4201313950512622
0.17331623922338224,0.05337885499928105,-0.1596030919230874,16.659837814418132,2.01336697429955,1.4960990387182402
0.1685813620039344,0.032444937410036734,-0.14549673590042161,16.80864896935197,2.0546402328886786,1.5565768069485006
0.16230168681988527,0.012318318070465933,-0.1317883780637838,16.89515230337552,2.07856040788739,1.5986177837438773
0.15566248411927938,-0.006834860981912161,-0.11940341872238888,16.925663653654254,2.098515587254063,1.6269331604717037
0.1495356571357354,-0.02511956075035733,-0.10780823026894219,16.904056651783005,2.102714312398024,1.6424507150989909
0.14422589828481658,-0.0424392501635415,-0.09595425907655908,16.82694083575992,2.092261313143067,1.6483972206025583
0.14024565876636996,-0.05795120747283017,-0.0835534466560157,16.69081056325451,2.075344270932073,1.6419202078885011
0.1367190302749107,-0.07296313040850712,-0.06991866821955187,16.492048173359574,2.043123702372988,1.6318184720097226
0.1330947829413845,-0.08809290212477654,-0.055545639396623145,16.234710624123913,2.000911795146875,1.620836723201691
0.12862684060010884,-0.10368221633361217,-0.04014201655925538,15.921559288874409,1.9524460645601913,1.6076544239250288
0.12365335850734777,-0.11945640137664854,-0.024548862978481717,15.564752398865776,1.897245769082677,1.5860835707828582
0.11925444810091795,-0.13455420152346673,-0.010367941884349835,15.176092951117013,1.8328563636776427,1.553545050352013
0.11569697480464958,-0.14853054973701696,0.002001640852925285,14.757080089862953,1.7562532206224701,1.5116223805915532
0.11166329804943723,-0.1625000248457967,0.013507230979268661,14.299996446182137,1.6776540063220635,1.4718097554245166
0.10687942520176402,-0.17656671747549982,0.02332645912949083,13.81155886838515,1.613548984873834,1.4346205072888096
0.10216067426654063,-0.1905104130593501,0.029834284605185904,13.313139072858398,1.5554157704192766,1.3925800239669603
0.0982821063713813,-0.2038971686525075,0.03331540934192551,12.814320007091489,1.4860250838972198,1.3433342282050829
0.09524732283398682,-0.21745296120710386,0.03628051534393839,12.306652879836083,1.4001228633238239,1.2931178764035642
0.09266760854750919,-0.23168392792808482,0.03861769821288975,11.791358120007072,1.301147004170823,1.2461981227915828
0.08967857583868631,-0.24685385338563612,0.04031238312937367,11.267885582209985,1.198719495450216,1.2063008648362286
0.0856735024372808,-0.26183870841477824,0.0414744373239261,10.74369301546098,1.0800398381377692,1.1576188128785436
0.08111173288005036,-0.275324231610552,0.04156487631625342,10.225389626369166,0.9434420342303984,1.089120253671201
0.07653820852173066,-0.2878636234831038,0.04072168756446322,9.705971542296316,0.8079999075325978,1.015722273795089
0.07197521728723244,-0.3007898165710903,0.0395985518738717,9.175958750792315,0.6960435787519048,0.9549801411578391
0.06662314366400471,-0.31274831932607716,0.03855892896991363,8.646945516892687,0.5781411058274403,0.8834976662831799
0.06027597645305476,-0.32176109140777165,0.03668502122130698,8.138494605611363,0.4195190408151732,0.7734273900438465
0.05282502417946333,-0.3279100482060308,0.03312517066077493,7.649733545882452,0.25147853505924966,0.6343158738095304
0.04430866193086523,-0.3329480157114602,0.0287878955153532,7.158801918028656,0.11973290148201876,0.5014762294454512
0.03500369440039214,-0.33794429905093676,0.024174076065138175,6.66821158939346,0.018919730726590922,0.37869246166595416
0.02500691572358149,-0.34179907639120316,0.02003265818127689,6.1942772774392765,-0.10033754750670909,0.24086194381030612
0.01448605012036839,-0.34445063493854566,0.015712005113982165,5.742523406938817,-0.2379662148547076,0.0902840429139431
0.0036115458102697617,-0.3471539413451599,0.010659225699577494,5.299761325795501,-0.3561010950572372,-0.04741948381111516
-0.0076972491188521605,-0.3503236294826858,0.005688878555818143,4.860055097535374,-0.44751840817879573,-0.1668011218673746
-0.01940513879955652,-0.35299384329719785,0.0017785831658669732,4.427761774423909,-0.5308073390300961,-0.2838251988418218
-0.031153813820458412,-0.35563934032658245,-0.0008355978439323619,3.99989297372379,-0.6032752566870898,-0.3908195159618818
-0.04260794696308107,-0.3589194427708421,-0.002437251420832072,3.570966324802945,-0.6549523381097143,-0.4744638688480066
-0.05384176666917327,-0.3618384691559822,-0.0031404079475453317,3.144970831930361,-0.6939417503488142,-0.5451954573070797
-0.0649376921725652,-0.363362680576601,-0.0031348313056112666,2.7358856397615554,-0.7363339270591583,-0.620141462011389
-0.07600672824733593,-0.36420548639898526,-0.0023657563633741226,2.33910818032629,-0.7644348216108814,-0.6878198983048436
-0.08715405252119593,-0.36493810523171055,-0.00032046667614685654,1.94767110310982,-0.7774509565849219,-0.7412903785346991
-0.09796973290836161,-0.36478528604066685,0.0028864136071723454,1.566885900570909,-0.7908975445836701,-0.7925990460280249
-0.10805454865131543,-0.3636702353072873,0.00720986168763919,1.1973545003317905,-0.8002658700268386,-0.8396762442130503
-0.1172030641741384,-0.36202790596265566,0.011993447545376405,0.8441204512472247,-0.8026764096249518,-0.8776328739884433
-0.12578874139454738,-0.3596176642584811,0.016781649970225174,0.5143155529524788,-0.804546367775988,-0.9122031066694823
-0.13402714440309785,-0.35655576398567834,0.02178514935919481,0.20331263745207373,-0.7988935372235151,-0.9407786331952603
-0.14191628799151937,-0.35259588823794796,0.026928788010239027,-0.09104395149206468,-0.7866236783270141,-0.9646338418910432
-0.1492839779932464,-0.34761298990989675,0.0317190979021012,-0.3637164612843258,-0.7716453213191228,-0.9867711407292596
-0.15612823564962697,-0.3423306188491632,0.036404746872056006,-0.6161996745109914,-0.7493032803446606,-1.000158656171694
-0.16232748922509377,-0.3367650075298173,0.04115344061391416,-0.8480504965275775,-0.7295150152324836,-1.0061179018476356
-0.1675687095241234,-0.3302863407221196,0.04575391345032689,-1.0588263987181707,-0.7092009605391442,-1.0105579634254518
-0.17180195191144057,-0.3231077921262327,0.05034293701493332,-1.2572563110491037,-0.6731867937356308,-1.008218939215368
-0.1750265635593812,-0.31576346006120143,0.05542751019141205,-1.445466453689403,-0.6338241839839726,-0.9979719256257594
-0.1773966000161341,-0.308258459077672,0.06084477630282202,-1.620372278030362,-0.594273729805895,-0.9819873047802662
-0.17927001769439777,-0.30091947757327275,0.06599430602382714,-1.7776820356480245,-0.55199455499228,-0.9590047378006485
-0.1807039811028463,-0.2937561698492452,0.07050820324249144,-1.9157767281864433,-0.5058951561737433,-0.9303324165421368
-0.18154343288872624,-0.28657896508242364,0.07453907387655144,-2.038559006960278,-0.4589499054930645,-0.8962623721931537
-0.1817225910851516,-0.27914179715804277,0.07841916009318439,-2.150336815531233,-0.40839325124132797,-0.8588863185351787
-0.18151963455622808,-0.2713535180545915,0.08239573769268271,-2.251472891034064,-0.35258990361153186,-0.8207521911058427
-0.18099736591692844,-0.2634083782140103,0.08683025954964697,-2.343425583690011,-0.29694921101412636,-0.7790546627777513
-0.18001319416308106,-0.2550494037790492,0.09161342066475026,-2.427866570236655,-0.24053874158649768,-0.7342776017756795
-0.17852871881413862,-0.2459282331727859,0.09574167769207864,3.330194851212376,-0.1840070375218873,-0.6931534962685464
-0.1766023385950868,-0.23651941076310334,0.0992923156359022,8.364948415681637,-0.1243036379420106,-0.6527126177072513
-0.17426028022713477,-0.22711273150751737,0.10229149024222593,12.719717681932794,-0.06960845955046241,-0.6109998474427882
-0.17155597958252547,-0.21773961760130106,0.1046006645688892,16.43822473035279,-0.017548679055591043,-0.5691393804233259
-0.16857009127127912,-0.20842262240239634,0.1064027559402693,19.556859781124523,0.03252892272814406,-0.5258841093327492
-0.1652577014534589,-0.19896751574767016,0.10821259997841957,22.110556300318777,0.08109513532351187,-0.48221884489171607
-0.16157673957030375,-0.18915593841750364,0.11000476865487527,24.141778096644387,0.1260814417754752,-0.44165953644672384
-0.15749785903623503,-0.17959215036942416,0.11167939823407824,25.69182960467825,0.16749529380457784,-0.3982520212377514
-0.15293253497305087,-0.1698824885447125,0.11263146484208414,26.804213273347678,0.2054689637525212,-0.35734941203036447
-0.1480526962722873,-0.1601273810119455,0.1130044072141321,27.514887309424704,0.24535932079651346,-0.319615922058599
-0.14298050940646415,-0.15009550293464874,0.11286583151023863,27.86059845596291,0.2846310949473497,-0.2876091704154111
-0.13806081050164534,-0.14055257374047242,0.11213078131887928,27.87718155298834,0.32324477631782916,-0.2543760450104124
-0.13311197015024148,-0.13100929767129488,0.1105972436660286,27.599844960844173,0.35508529932707844,-0.2246301849470846
-0.1278804395432931,-0.12187842954225363,0.10869532294328377,27.051854330423076,0.3915583304848089,-0.19153221706117718
-0.12251751842710432,-0.11317178117607503,0.10624944888726322,26.265235242699763,0.42760973608646147,-0.15901093946790038
-0.11722836364883896,-0.10538486828416647,0.10312657866766847,25.274311001491366,0.46222012451167627,-0.12692274647204457
-0.11198847843285453,-0.09809027696201854,0.09920152588155817,24.109492949462958,0.4930615944525154,-0.09786732902413575
-0.10687928286709454,-0.09105203859455513,0.09445771844980233,22.793768861043898,0.5238107489655788,-0.06937014659572849
-0.10217395322289392,-0.08403441105533771,0.08879256957680749,21.349681678804483,0.555458330924637,-0.04446525025121348
-0.09792728598409046,-0.0777581627898726,0.08262224836368959,19.796405708888102,0.590015158542794,-0.0191690350699924
-0.09368642616138051,-0.07196942766130016,0.07582821295154615,18.159156934126496,0.6202686160031239,0.003854098392622629
-0.08926785307760185,-0.06616872635218334,0.068846865048728,16.454251567577497,0.6437676183641212,0.025428342703952833
-0.08492405317707305,-0.06021635525220288,0.06199421423641326,14.696136072738016,0.6635814312340795,0.044408113354744067
-0.08065105143877499,-0.05488717180993432,0.055665601678228406,12.899508567952573,0.677248392025302,0.06575835769650767
-0.07630580241095028,-0.049794445750331914,0.050012152806676494,11.075479996232577,0.687015506141096,0.08571960203457155
-0.07204391997286737,-0.044453291585572006,0.044652255394215225,9.239904884864604,0.6983183673241966,0.09922032982625442
-0.06787009091224151,-0.03895085433403762,0.03950381157820098,7.40806446468028,0.7090343205612273,0.11043562060654187
-0.06368711881726984,-0.033616394018760286,0.034670553830480004,5.591474225564593,0.7180451965467594,0.1221502442506187
-0.059352026629651146,-0.028241607844501547,0.029714002928615077,3.804329417564965,0.7225122156994686,0.13205215516938515
-0.05490205654599625,-0.023263605831375968,0.02464292428795109,2.0545843675059636,0.725036302090434,0.14411208051472504
-0.05058755396266694,-0.018561926984934092,0.019257538965750956,0.35316217008607254,0.7264926039558632,0.15461416778949416
-0.046811047160395226,-0.014213212599731025,0.013623991639938632,-1.2930663058081127,0.7354363772382867,0.1624088971909216
-0.04330280028550352,-0.009419144102024705,0.007882651192347906,-2.8760081248346783,0.742770347539658,0.16220019685150397
-0.03978903931120723,-0.004451582920248942,0.0024452321453942855,-4.391401005648429,0.7458691095006451,0.16009634520748364
-0.036212712419470106,0.0006122429592768444,-0.0027482191428221253,-5.831958763254868,0.7393185987384152,0.1570538383079972
-0.03258819091115117,0.005347356601011315,-0.007156923446796547,-7.200800956093499,0.7364441163184177,0.1549998149133468
-0.029066628241756327,0.009861414328490102,-0.011034116101058856,-8.49243636173414,0.7315788397954063,0.1502264442286794
-0.025761584634625252,0.014112910046198614,-0.014836876977908722,-9.699706286124647,0.7224892186576728,0.14314171564286224
-0.022707892214864203,0.018121149323865875,-0.0184070323845047,-10.82071696447641,0.7095977588053396,0.13577338185957774
-0.01992088507310385,0.021623891889076322,-0.021669727554300466,-11.852748498711101,0.6930959923853522,0.13214234046603285
-0.01734537456696788,0.025379301851526644,-0.024606110586102823,-12.796040431441392,0.674412652528376,0.12492216884492782
-0.014961208535935341,0.028956377528084977,-0.027303325258294098,-13.65208804136254,0.6530812278015897,0.1143016912947732
-0.012369796725101332,0.03171535020778537,-0.029435481992822296,-14.426475374583237,0.6307147661874043,0.10516286452185743
-0.00934765300397944,0.033459616573133205,-0.03125694714720255,-15.119274514728547,0.6147616552654049,0.09988815988656934
-0.0060046282572821415,0.03420057699542491,-0.033283954010694006,-15.726423461980684,0.6009202742062306,0.10043870299208928
-0.0025448161392923364,0.0341969285013747,-0.035675456433673994,-16.24738616880457,0.5852480927714013,0.10640993874419105
0.0008431597423091269,0.03372188012973752,-0.03801738304661796,-16.68702402185564,0.5721920476543536,0.11478931876290477
0.003967388339855691,0.03308131837719076,-0.03996133652743315,-17.047498851115407,0.55683940243751,0.12255937886557337
0.0069854879938142135,0.03280102845233706,-0.04074368436243605,-17.33683617090138,0.5398737043023636,0.12602403261981568
0.009629021422716584,0.03267275075116709,-0.04049555167542293,-17.553713762740436,0.5150338490226154,0.12593412419986608
0.012040597011799926,0.03264630306317462,-0.039849749658648154,-17.697411026462767,0.4861090359467797,0.1231469827383557
0.014381051713577734,0.032464717340803854,-0.03936573522381012,-17.769749542796824,0.45301452658078956,0.12098172370955346
0.01651322266396643,0.03196603649437789,-0.039283960838642086,-17.7720076596724,0.41790766455623407,0.12034075086558475
0.018290723721418288,0.031384144087504645,-0.0397715141759365,-17.706699271846677,0.3855677653421201,0.11891978103209083
0.019658019761274192,0.031144607540920077,-0.04034003824810558,-17.581656069209323,0.35528081261990174,0.11349462355380235
0.020539902560929912,0.03117965922342833,-0.04055627649816123,-17.402831806370507,0.3234210738311624,0.10495081448761882
0.0212098017773786,0.031392756437983,-0.040098121143196955,-17.176891911642155,0.2891094102903841,0.09486380032690656
0.021848901576230324,0.03174846529640023,-0.0392477235472624,-16.9054081925844,0.2564936673809607,0.08269476651509426
0.022369364265690243,0.03185248037936071,-0.0385690819237438,-16.585980517370277,0.2221109855887162,0.07126717395001914
0.022673143518782198,0.03179415279485633,-0.038252496050921854,-16.22176118429825,0.18727845053407857,0.059135743351451504
0.02302861952197712,0.031538764692634565,-0.037965559573243775,-15.820375485554004,0.1537219159455251,0.04871272812233193
0.023378600554753746,0.03105309486923209,-0.037588001888608315,-15.386055599162654,0.12025467989323768,0.03980677782294252
0.023571574482400937,0.030261389745437697,-0.0370867269394691,-14.92253762357446,0.09094057616702048,0.03030495394787905
0.02351573361280925,0.02933402405005052,-0.03647495016968977,-14.433278030428275,0.06509222273629875,0.021157831530516494
0.023368268541765238,0.029062034041196397,-0.03625082123037573,-13.917605018120026,0.041823509389431496,0.00764925221765872
0.022986016668776237,0.029013594210865197,-0.03659022246430815,-13.373552125782803,0.012742947068117488,-0.0040035325509164
0.02233891505232049,0.028935797080636764,-0.03716145715965062,-12.808868671752602,-0.015219936589425526,-0.015233405935302154
0.0216269606510342,0.02880646992083982,-0.03786813287986516,-12.227370636152319,-0.04292295777533359,-0.028089434608835784
0.021148863964540413,0.027961714882762546,-0.0387266987360698,-11.632456963096056,-0.07190507360992898,-0.034081662722741754
0.020916315867381543,0.026478333263429226,-0.039598913221227355,-11.030166339401974,-0.10177188157435513,-0.0313557589094253
0.020532910212347828,0.025263876309961526,-0.04053408256548048,-10.420233795220497,-0.13012243452525715,-0.031072688280858792
0.019819597386220255,0.02438741575401572,-0.04121424622050797,-9.806195915007914,-0.1603111421949291,-0.03470709518058761
0.019001602430669604,0.02349079745734824,-0.041187839960111404,-9.196057301923382,-0.1884240934073261,-0.03746207289986252
0.01825209839933325,0.022168179021730235,-0.040710683469523515,-8.589446787541734,-0.2190201039270167,-0.03721812904678637
0.01772964846911169,0.020340390363081266,-0.03999761311360287,-7.988217852576562,-0.24675739629411203,-0.03403578033337408
0.017585642132515115,0.01843118279524799,-0.039132566331218074,-7.3950770100501,-0.26965845793397164,-0.02883869065624605
0.017355310495506086,0.016707482018672483,-0.03834330466167503,-6.807519607672603,-0.29589900722496343,-0.0241828004658364
0.01667671692793142,0.014655426622485875,-0.03734567408102231,-6.230836942913156,-0.31961413992116106,-0.017647252465578772
0.01553075693503412,0.012910189383831204,-0.03640334894069474,-5.6663973614586975,-0.33936748810414286,-0.01378124473640991
0.014381046732205143,0.011190565627365359,-0.03565023442257679,-5.1130147987944286,-0.35536018923038803,-0.008034027777192285
0.013529904883294256,0.008927542252648748,-0.03478766500366791,-4.576340739291769,-0.3663864861331464,0.005353012950211046
0.01300564218330666,0.006533338527839119,-0.033751922588338756,-4.060035388243939,-0.37064425972623705,0.020159066479633524
0.012446370228124372,0.003775381187350728,-0.03282412891354946,-3.5616856151918994,-0.37385859846542524,0.03835294390971075
0.011911299055208924,0.0011076249932873948,-0.03225816325376106,-3.0832654330580542,-0.3651836099193737,0.05843168291987792
0.011242413967929644,-0.0008564678604929786,-0.032119036586416516,-2.6204960645912454,-0.3567089910517987,0.0778589850729149
0.010371398934645499,-0.00215961368449347,-0.03200735212171083,-2.1753434702775243,-0.3535320548030751,0.09581256428221538
0.009616681284013445,-0.0032171276511266753,-0.03111162757143772,-1.7589046333925435,-0.34225485151640694,0.11564717952441206
0.009063894594245833,-0.003469568391203659,-0.02970565333175252,-1.3696292507455667,-0.3267806876460062,0.13025450501046767
0.008520019419133024,-0.003272179979689406,-0.027628902019120754,-1.006894179079585,-0.3126784719295727,0.14172266613032314
0.007933395983525991,-0.002603394972987211,-0.02485085348190344,-0.6736468435128842,-0.28942452337370506,0.15145759532230463
0.007143059105226349,-0.0007503727337359388,-0.021837269785810267,-0.36675497848737226,-0.26211682129308655,0.1535631553540212
0.0063569423142866635,0.0018036203665748609,-0.01882433059378296,-0.08143641604334251,-0.23805770925292058,0.15121816274330455
0.0057833494017841235,0.003923030953233215,-0.015685150763308852,0.18237486431743966,-0.21528608460268256,0.15376506144754054
0.005136134676557326,0.00620950720857376,-0.012740861620039595,0.42856866927778725,-0.19790932485627263,0.1561038022897529
0.0039607525438328465,0.009415886833844266,-0.010177426258699364,0.6583721946952354,-0.18614876685372295,0.1494662582951641
0.002106419397580205,0.013577239709687015,-0.007654571681187196,0.8672878707817614,-0.17513240978322658,0.13313684036309656
-0.0004988589733593788,0.01854683135242179,-0.005048452642111557,1.0560655314178813,-0.1632038303728119,0.10774125632566339
-0.0036056515666734795,0.023478262073441964,-0.0025786460353186824,1.2305473922033119,-0.15399631029951708,0.08087274323266869
-0.006823581808879692,0.0278984510922883,-0.00010411253610465368,1.3901551117684758,-0.1466080721556604,0.0563797323499447
-0.01007015900955008,0.031796721097813264,0.002580599863854503,1.534527845858445,-0.1423054402983506,0.03155957521202574
-0.013167380644820707,0.03485157971664592,0.005920216727596666,1.659062116432677,-0.1389032314780433,0.006951036324276683
-0.016142525796557256,0.03736013328945091,0.00929392747896049,1.7687715604198706,-0.14037043704407176,-0.016907946331630536
-0.01863691153899712,0.03942338554947003,0.012180175246264715,1.8668468252028183,-0.14179234780425443,-0.039432684314869126
-0.020673904623373623,0.04086939775450394,0.014816472425480356,1.9536292810345224,-0.1449837075465745,-0.060339239872341244
-0.022089728490890196,0.041912920771619025,0.017886922529700536,2.025186464696711,-0.14874777271810757,-0.08154148816513052
-0.023135277900849207,0.042207599624536914,0.021692745654583442,2.0812438839209135,-0.15678441738185067,-0.0972362730788619
-0.023740149570635465,0.04177390859020895,0.026079301862211614,2.1196083545414286,-0.1638608806501042,-0.11070568672064501
-0.023870864715139717,0.04037752385591645,0.030683197595860905,2.1413005744787785,-0.1690222724873244,-0.11925987232450329
-0.023827995200947312,0.038620200016096895,0.03472696983979069,2.1540436212819065,-0.174661154791449,-0.1256202534263816
-0.02391986064381544,0.03678294263356039,0.038229819720703606,2.157728612671002,-0.1767914460546186,-0.13234062235304214
-0.02411406687351044,0.035316925626442376,0.04138461238302436,2.1518304067548684,-0.1765406374569415,-0.14303549648755973
-0.024494902010645112,0.03396164470500186,0.04403027631478874,2.1410028863827266,-0.1789331288947427,-0.1529069197408583
-0.024786780235692443,0.03302402641561592,0.04661279197133924,2.123714807597103,-0.18389010256456198,-0.16238516395186853
-0.025128688629610638,0.03236871836506203,0.048752255950976195,2.10255010916206,-0.19134080247505922,-0.17268821658206504
-0.025509024373010915,0.03153067471735726,0.050646978678389895,2.074831448415603,-0.20114865007142424,-0.1817467981545497
-0.02584766164070488,0.030452410298857324,0.052461947483481125,2.037941549855815,-0.20634084775789122,-0.1897910845396828
-0.026041517487208145,0.029548961419958344,0.05370478431275545,1.9978868309108626,-0.2128926247388598,-0.19773176577588397
-0.02614192219567615,0.029047363687933668,0.054498254341480715,1.9546770403193419,-0.22212597450297195,-0.20887809642250377
-0.02615827158442666,0.028416035559771825,0.05522595654907748,1.9031416786344204,-0.22456866841626721,-0.22197605640752768
-0.02628175983423048,0.02745718634237473,0.05525311993022089,1.8490780027445677,-0.2237515434269439,-0.23206498406083326
-0.026883031759987894,0.026314267074360784,0.05402758785332106,1.79928304588847,-0.22504757969535488,-0.23949482993672894
-0.027710886872484648,0.024787543999891595,0.05216702391701493,1.7495145808291177,-0.2279522154744757,-0.24258222049920344
-0.028246656293021234,0.02312627623600889,0.05065010972964094,1.6878206845458457,-0.2184775476036235,-0.248978553899701
-0.0284392567375353,0.02158024260501639,0.04929815072515799,1.6184705866439033,-0.2042236256890284,-0.25785638285595597
-0.028462701581349517,0.019848321563099333,0.04725374179758334,1.555136073677193,-0.1996199414559499,-0.2622298578626222
-0.028238469202510365,0.017566007201655374,0.04484368225832516,1.4949565875481796,-0.19706006793948053,-0.261289568480364
-0.027859160199901773,0.015098716603244184,0.042067166803794166,1.4372015060312622,-0.19191271059138099,-0.2571452453085324
-0.027514944270495077,0.012804417450379411,0.038569184655093486,1.386037326430761,-0.19284481817529348,-0.2496916060662483
-0.027342413095322846,0.010935980710124665,0.0345248286763758,1.336328404373244,-0.19238740982421443,-0.24352028537128845
-0.027636531687773417,0.009190570763008842,0.029965822740100206,1.2872384530604442,-0.1878588762704706,-0.23877380084592212
-0.028217766207120826,0.007621421032536768,0.025332786159054085,1.2391189090130275,-0.1858067341194974,-0.2363852501996855
-0.028476670552658775,0.005598647108374388,0.021320814590013032,1.1874063867822637,-0.1835449357301039,-0.2300521342687466
-0.028255882430221757,0.003221763086670139,0.01817491331498054,1.1297613975968233,-0.179763853284768,-0.2210436471639564
-0.027698389114211224,0.0003893371948310055,0.015569604073520267,1.0675344754858314,-0.1754336118219415,-0.20801266684910377
